imagen1,imagen2,hm1,cp1,ai1,pa1,vr1,cl1,hm2,cp2,ai2,pa2,vr2,cl2,trials.thisRepN,trials.thisTrialN,trials.thisN,trials.thisIndex,thisRow.t,notes,Portada.started,image_11.started,text_19.started,Portada.stopped,Instruccions.started,text_8.started,key_resp_3.started,Instruccions.stopped,key_resp_3.keys,key_resp_3.rt,key_resp_3.duration,instructions_2.started,image_3.started,image_4.started,key_resp_4.started,text_9.started,text_10.started,instructions_2.stopped,key_resp_4.keys,key_resp_4.rt,key_resp_4.duration,instructions_3.started,text_11.started,text_12.started,text_13.started,text_14.started,text_15.started,text_16.started,text_17.started,image_5.started,key_resp_5.started,text_18.started,image_6.started,image_7.started,image_8.started,image_9.started,image_10.started,instructions_3.stopped,key_resp_5.keys,key_resp_5.rt,key_resp_5.duration,trial.started,image.started,image_2.started,key_resp.started,trial.stopped,key_resp.keys,key_resp.rt,key_resp.duration,results.started,text.started,text_2.started,text_3.started,text_4.started,text_5.started,text_6.started,text_7.started,key_resp_2.started,results.stopped,key_resp_2.keys,key_resp_2.rt,key_resp_2.duration,participant,session,date,expName,psychopyVersion,frameRate,expStart,
,,,,,,,,,,,,,,,,,,,,0.0032417000038549304,0.029785799997625872,0.029785799997625872,10.003388700002688,10.003412300000491,10.019300899999507,10.019300899999507,13.157033900002716,space,3.1305910000010044,None,,,,,,,,,,,,,,,,,,,,,,,,,,,,,,,,,,,,,,,,,,,,,,,,,,,,905773,001,2024-07-11_12h17.48.261,untitled,2023.2.3,59.88124351721431,2024-07-11 12h17.56.671028 +0200,
,,,,,,,,,,,,,,,,,,,,,,,,,,,,,,,13.157053299997642,13.172403000004124,13.172403000004124,13.172403000004124,13.172403000004124,13.172403000004124,17.127249800003483,left,3.9533632999955444,None,,,,,,,,,,,,,,,,,,,,,,,,,,,,,,,,,,,,,,,,,,905773,001,2024-07-11_12h17.48.261,untitled,2023.2.3,59.88124351721431,2024-07-11 12h17.56.671028 +0200,
,,,,,,,,,,,,,,,,,,,,,,,,,,,,,,,,,,,,,,,,,17.1272689000034,17.14296170000307,17.14296170000307,17.14296170000307,17.14296170000307,17.14296170000307,17.14296170000307,17.14296170000307,17.14296170000307,17.14296170000307,17.14296170000307,17.14296170000307,17.14296170000307,17.14296170000307,17.14296170000307,17.14296170000307,24.4516328000027,space,7.305543399997987,None,,,,,,,,,,,,,,,,,,,,,,905773,001,2024-07-11_12h17.48.261,untitled,2023.2.3,59.88124351721431,2024-07-11 12h17.56.671028 +0200,
C:\Users\david\OneDrive\Documentos\GitHub\OpenBrains\coche_autonomo\pngs\71.png,C:\Users\david\OneDrive\Documentos\GitHub\OpenBrains\coche_autonomo\pngs\72.png,0,1,1,0,1,1,0,-1,-1,0,-1,-1,0,0,0,35,24.60280469999998,,,,,,,,,,,,,,,,,,,,,,,,,,,,,,,,,,,,,,,,,,,24.456909400003497,24.60280469999998,24.60280469999998,24.60280469999998,25.018279900003108,left,0.40405879999889294,None,,,,,,,,,,,,,,905773,001,2024-07-11_12h17.48.261,untitled,2023.2.3,59.88124351721431,2024-07-11 12h17.56.671028 +0200,
C:\Users\david\OneDrive\Documentos\GitHub\OpenBrains\coche_autonomo\pngs\13.png,C:\Users\david\OneDrive\Documentos\GitHub\OpenBrains\coche_autonomo\pngs\14.png,0,1,1,0,-1,0,0,-1,-1,0,1,0,0,1,1,6,25.167145999999775,,,,,,,,,,,,,,,,,,,,,,,,,,,,,,,,,,,,,,,,,,,25.01872159999766,25.167145999999775,25.167145999999775,25.167145999999775,25.402162999998836,left,0.22984140000335174,None,,,,,,,,,,,,,,905773,001,2024-07-11_12h17.48.261,untitled,2023.2.3,59.88124351721431,2024-07-11 12h17.56.671028 +0200,
C:\Users\david\OneDrive\Documentos\GitHub\OpenBrains\coche_autonomo\pngs\51.png,C:\Users\david\OneDrive\Documentos\GitHub\OpenBrains\coche_autonomo\pngs\52.png,0,-1,1,1,-1,0,0,1,-1,-1,1,0,0,2,2,25,25.544906100003573,,,,,,,,,,,,,,,,,,,,,,,,,,,,,,,,,,,,,,,,,,,25.40248850000353,25.544906100003573,25.544906100003573,25.544906100003573,25.719738799998595,right,0.17321280000032857,None,,,,,,,,,,,,,,905773,001,2024-07-11_12h17.48.261,untitled,2023.2.3,59.88124351721431,2024-07-11 12h17.56.671028 +0200,
C:\Users\david\OneDrive\Documentos\GitHub\OpenBrains\coche_autonomo\pngs\21.png,C:\Users\david\OneDrive\Documentos\GitHub\OpenBrains\coche_autonomo\pngs\22.png,1,1,1,0,-1,0,-1,-1,-1,0,1,0,0,3,3,10,25.873482299997704,,,,,,,,,,,,,,,,,,,,,,,,,,,,,,,,,,,,,,,,,,,25.720076500001596,25.873482299997704,25.873482299997704,25.873482299997704,26.002136700000847,right,0.1245827000020654,None,,,,,,,,,,,,,,905773,001,2024-07-11_12h17.48.261,untitled,2023.2.3,59.88124351721431,2024-07-11 12h17.56.671028 +0200,
C:\Users\david\OneDrive\Documentos\GitHub\OpenBrains\coche_autonomo\pngs\55.png,C:\Users\david\OneDrive\Documentos\GitHub\OpenBrains\coche_autonomo\pngs\56.png,0,1,1,-1,1,0,0,-1,-1,1,-1,0,0,4,4,27,26.159424400000717,,,,,,,,,,,,,,,,,,,,,,,,,,,,,,,,,,,,,,,,,,,26.00256729999819,26.159424400000717,26.159424400000717,26.159424400000717,26.303415499998664,left,0.1427724000022863,None,,,,,,,,,,,,,,905773,001,2024-07-11_12h17.48.261,untitled,2023.2.3,59.88124351721431,2024-07-11 12h17.56.671028 +0200,
C:\Users\david\OneDrive\Documentos\GitHub\OpenBrains\coche_autonomo\pngs\75.png,C:\Users\david\OneDrive\Documentos\GitHub\OpenBrains\coche_autonomo\pngs\76.png,0,-1,1,0,-1,1,0,1,-1,0,1,-1,0,5,5,37,26.436089599999832,,,,,,,,,,,,,,,,,,,,,,,,,,,,,,,,,,,,,,,,,,,26.303754100001242,26.436089599999832,26.436089599999832,26.436089599999832,26.603433500000392,left,0.1548253999935696,None,,,,,,,,,,,,,,905773,001,2024-07-11_12h17.48.261,untitled,2023.2.3,59.88124351721431,2024-07-11 12h17.56.671028 +0200,
C:\Users\david\OneDrive\Documentos\GitHub\OpenBrains\coche_autonomo\pngs\41.png,C:\Users\david\OneDrive\Documentos\GitHub\OpenBrains\coche_autonomo\pngs\42.png,0,-1,1,-1,1,0,0,1,-1,1,-1,0,0,6,6,20,26.74973950000276,,,,,,,,,,,,,,,,,,,,,,,,,,,,,,,,,,,,,,,,,,,26.603828400002385,26.74973950000276,26.74973950000276,26.74973950000276,26.869463399998494,right,0.10568229999626055,None,,,,,,,,,,,,,,905773,001,2024-07-11_12h17.48.261,untitled,2023.2.3,59.88124351721431,2024-07-11 12h17.56.671028 +0200,
C:\Users\david\OneDrive\Documentos\GitHub\OpenBrains\coche_autonomo\pngs\67.png,C:\Users\david\OneDrive\Documentos\GitHub\OpenBrains\coche_autonomo\pngs\68.png,0,-1,1,0,-1,-1,0,1,-1,0,1,1,0,7,7,33,27.01288310000382,,,,,,,,,,,,,,,,,,,,,,,,,,,,,,,,,,,,,,,,,,,26.8698302000048,27.01288310000382,27.01288310000382,27.01288310000382,27.104057600001397,right,0.0893897999994806,None,,,,,,,,,,,,,,905773,001,2024-07-11_12h17.48.261,untitled,2023.2.3,59.88124351721431,2024-07-11 12h17.56.671028 +0200,
C:\Users\david\OneDrive\Documentos\GitHub\OpenBrains\coche_autonomo\pngs\79.png,C:\Users\david\OneDrive\Documentos\GitHub\OpenBrains\coche_autonomo\pngs\80.png,0,1,1,0,1,-1,0,-1,-1,0,-1,1,0,8,8,39,27.23797100000229,,,,,,,,,,,,,,,,,,,,,,,,,,,,,,,,,,,,,,,,,,,27.10437880000245,27.23797100000229,27.23797100000229,27.23797100000229,27.337234800004808,left,0.09510690000024624,None,,,,,,,,,,,,,,905773,001,2024-07-11_12h17.48.261,untitled,2023.2.3,59.88124351721431,2024-07-11 12h17.56.671028 +0200,
C:\Users\david\OneDrive\Documentos\GitHub\OpenBrains\coche_autonomo\pngs\5.png,C:\Users\david\OneDrive\Documentos\GitHub\OpenBrains\coche_autonomo\pngs\6.png,0,1,1,0,-1,0,0,-1,-1,0,1,0,0,9,9,2,27.47957950000273,,,,,,,,,,,,,,,,,,,,,,,,,,,,,,,,,,,,,,,,,,,27.33755380000366,27.47957950000273,27.47957950000273,27.47957950000273,27.603988399998343,right,0.11830319999717176,None,,,,,,,,,,,,,,905773,001,2024-07-11_12h17.48.261,untitled,2023.2.3,59.88124351721431,2024-07-11 12h17.56.671028 +0200,
C:\Users\david\OneDrive\Documentos\GitHub\OpenBrains\coche_autonomo\pngs\25.png,C:\Users\david\OneDrive\Documentos\GitHub\OpenBrains\coche_autonomo\pngs\26.png,1,-1,1,0,1,0,-1,1,-1,0,-1,0,0,10,10,12,27.739406500004407,,,,,,,,,,,,,,,,,,,,,,,,,,,,,,,,,,,,,,,,,,,27.60444500000449,27.739406500004407,27.739406500004407,27.739406500004407,27.837785700001405,left,0.09058619999996154,None,,,,,,,,,,,,,,905773,001,2024-07-11_12h17.48.261,untitled,2023.2.3,59.88124351721431,2024-07-11 12h17.56.671028 +0200,
C:\Users\david\OneDrive\Documentos\GitHub\OpenBrains\coche_autonomo\pngs\3.png,C:\Users\david\OneDrive\Documentos\GitHub\OpenBrains\coche_autonomo\pngs\4.png,0,-1,1,0,-1,0,0,1,-1,0,1,0,0,11,11,1,27.993667300004745,,,,,,,,,,,,,,,,,,,,,,,,,,,,,,,,,,,,,,,,,,,27.838102499998058,27.993667300004745,27.993667300004745,27.993667300004745,28.63862479999807,left,0.6282962999976007,None,,,,,,,,,,,,,,905773,001,2024-07-11_12h17.48.261,untitled,2023.2.3,59.88124351721431,2024-07-11 12h17.56.671028 +0200,
C:\Users\david\OneDrive\Documentos\GitHub\OpenBrains\coche_autonomo\pngs\1.png,C:\Users\david\OneDrive\Documentos\GitHub\OpenBrains\coche_autonomo\pngs\2.png,0,-1,1,0,1,0,0,1,-1,0,-1,0,0,12,12,0,28.788185099998373,,,,,,,,,,,,,,,,,,,,,,,,,,,,,,,,,,,,,,,,,,,28.639011400002346,28.788185099998373,28.788185099998373,28.788185099998373,28.922983600001317,left,0.1302413000012166,None,,,,,,,,,,,,,,905773,001,2024-07-11_12h17.48.261,untitled,2023.2.3,59.88124351721431,2024-07-11 12h17.56.671028 +0200,
C:\Users\david\OneDrive\Documentos\GitHub\OpenBrains\coche_autonomo\pngs\11.png,C:\Users\david\OneDrive\Documentos\GitHub\OpenBrains\coche_autonomo\pngs\12.png,0,-1,1,0,-1,0,0,1,-1,0,1,0,0,13,13,5,29.073462799999106,,,,,,,,,,,,,,,,,,,,,,,,,,,,,,,,,,,,,,,,,,,28.923305399999663,29.073462799999106,29.073462799999106,29.073462799999106,29.138391599997703,right,0.06105549999483628,None,,,,,,,,,,,,,,905773,001,2024-07-11_12h17.48.261,untitled,2023.2.3,59.88124351721431,2024-07-11 12h17.56.671028 +0200,
C:\Users\david\OneDrive\Documentos\GitHub\OpenBrains\coche_autonomo\pngs\9.png,C:\Users\david\OneDrive\Documentos\GitHub\OpenBrains\coche_autonomo\pngs\10.png,0,-1,1,0,1,0,0,1,-1,0,-1,0,0,14,14,4,29.28379280000081,,,,,,,,,,,,,,,,,,,,,,,,,,,,,,,,,,,,,,,,,,,29.138777799998934,29.28379280000081,29.28379280000081,29.28379280000081,29.406516800001555,right,0.12130659999820637,None,,,,,,,,,,,,,,905773,001,2024-07-11_12h17.48.261,untitled,2023.2.3,59.88124351721431,2024-07-11 12h17.56.671028 +0200,
C:\Users\david\OneDrive\Documentos\GitHub\OpenBrains\coche_autonomo\pngs\27.png,C:\Users\david\OneDrive\Documentos\GitHub\OpenBrains\coche_autonomo\pngs\28.png,1,-1,1,0,-1,0,-1,1,-1,0,1,0,0,15,15,13,29.55295009999827,,,,,,,,,,,,,,,,,,,,,,,,,,,,,,,,,,,,,,,,,,,29.406867600002442,29.55295009999827,29.55295009999827,29.55295009999827,29.656673800003773,left,0.10006240000075195,None,,,,,,,,,,,,,,905773,001,2024-07-11_12h17.48.261,untitled,2023.2.3,59.88124351721431,2024-07-11 12h17.56.671028 +0200,
C:\Users\david\OneDrive\Documentos\GitHub\OpenBrains\coche_autonomo\pngs\45.png,C:\Users\david\OneDrive\Documentos\GitHub\OpenBrains\coche_autonomo\pngs\46.png,0,1,1,1,-1,0,0,-1,-1,-1,1,0,0,16,16,22,29.828656300000148,,,,,,,,,,,,,,,,,,,,,,,,,,,,,,,,,,,,,,,,,,,29.65700790000119,29.828656300000148,29.828656300000148,29.828656300000148,30.00648170000204,right,0.16096290000132285,None,,,,,,,,,,,,,,905773,001,2024-07-11_12h17.48.261,untitled,2023.2.3,59.88124351721431,2024-07-11 12h17.56.671028 +0200,
C:\Users\david\OneDrive\Documentos\GitHub\OpenBrains\coche_autonomo\pngs\29.png,C:\Users\david\OneDrive\Documentos\GitHub\OpenBrains\coche_autonomo\pngs\30.png,-1,1,1,0,-1,0,1,-1,-1,0,1,0,0,17,17,14,30.133648800001538,,,,,,,,,,,,,,,,,,,,,,,,,,,,,,,,,,,,,,,,,,,30.006858300002932,30.133648800001538,30.133648800001538,30.133648800001538,30.25644800000009,left,0.12082599999848753,None,,,,,,,,,,,,,,905773,001,2024-07-11_12h17.48.261,untitled,2023.2.3,59.88124351721431,2024-07-11 12h17.56.671028 +0200,
C:\Users\david\OneDrive\Documentos\GitHub\OpenBrains\coche_autonomo\pngs\59.png,C:\Users\david\OneDrive\Documentos\GitHub\OpenBrains\coche_autonomo\pngs\60.png,0,-1,1,0,-1,0,0,1,-1,0,1,0,0,18,18,29,30.395166300004348,,,,,,,,,,,,,,,,,,,,,,,,,,,,,,,,,,,,,,,,,,,30.256830199999968,30.395166300004348,30.395166300004348,30.395166300004348,30.606785100004345,left,0.21005370000057155,None,,,,,,,,,,,,,,905773,001,2024-07-11_12h17.48.261,untitled,2023.2.3,59.88124351721431,2024-07-11 12h17.56.671028 +0200,
C:\Users\david\OneDrive\Documentos\GitHub\OpenBrains\coche_autonomo\pngs\43.png,C:\Users\david\OneDrive\Documentos\GitHub\OpenBrains\coche_autonomo\pngs\44.png,0,-1,1,-1,-1,0,0,1,-1,1,1,0,0,19,19,21,30.74128180000116,,,,,,,,,,,,,,,,,,,,,,,,,,,,,,,,,,,,,,,,,,,30.607147800001258,30.74128180000116,30.74128180000116,30.74128180000116,30.973728299999493,left,0.21661390000372194,None,,,,,,,,,,,,,,905773,001,2024-07-11_12h17.48.261,untitled,2023.2.3,59.88124351721431,2024-07-11 12h17.56.671028 +0200,
C:\Users\david\OneDrive\Documentos\GitHub\OpenBrains\coche_autonomo\pngs\53.png,C:\Users\david\OneDrive\Documentos\GitHub\OpenBrains\coche_autonomo\pngs\54.png,0,1,1,-1,-1,0,0,-1,-1,1,1,0,0,20,20,26,31.117012100003194,,,,,,,,,,,,,,,,,,,,,,,,,,,,,,,,,,,,,,,,,,,30.97407630000089,31.117012100003194,31.117012100003194,31.117012100003194,31.274892699999327,right,0.1537663999988581,None,,,,,,,,,,,,,,905773,001,2024-07-11_12h17.48.261,untitled,2023.2.3,59.88124351721431,2024-07-11 12h17.56.671028 +0200,
C:\Users\david\OneDrive\Documentos\GitHub\OpenBrains\coche_autonomo\pngs\63.png,C:\Users\david\OneDrive\Documentos\GitHub\OpenBrains\coche_autonomo\pngs\64.png,0,1,1,0,1,0,0,-1,-1,0,-1,0,0,21,21,31,31.421012799997698,,,,,,,,,,,,,,,,,,,,,,,,,,,,,,,,,,,,,,,,,,,31.27525450000394,31.421012799997698,31.421012799997698,31.421012799997698,31.674661500001093,left,0.24085299999569543,None,,,,,,,,,,,,,,905773,001,2024-07-11_12h17.48.261,untitled,2023.2.3,59.88124351721431,2024-07-11 12h17.56.671028 +0200,
C:\Users\david\OneDrive\Documentos\GitHub\OpenBrains\coche_autonomo\pngs\15.png,C:\Users\david\OneDrive\Documentos\GitHub\OpenBrains\coche_autonomo\pngs\16.png,0,1,1,0,1,0,0,-1,-1,0,-1,0,0,22,22,7,31.82709420000174,,,,,,,,,,,,,,,,,,,,,,,,,,,,,,,,,,,,,,,,,,,31.674966600003245,31.82709420000174,31.82709420000174,31.82709420000174,31.957963100001507,right,0.11508719999983441,None,,,,,,,,,,,,,,905773,001,2024-07-11_12h17.48.261,untitled,2023.2.3,59.88124351721431,2024-07-11 12h17.56.671028 +0200,
C:\Users\david\OneDrive\Documentos\GitHub\OpenBrains\coche_autonomo\pngs\7.png,C:\Users\david\OneDrive\Documentos\GitHub\OpenBrains\coche_autonomo\pngs\8.png,0,1,1,0,1,0,0,-1,-1,0,-1,0,0,23,23,3,32.09400789999927,,,,,,,,,,,,,,,,,,,,,,,,,,,,,,,,,,,,,,,,,,,31.95837659999961,32.09400789999927,32.09400789999927,32.09400789999927,32.32561910000368,left,0.21519329999864567,None,,,,,,,,,,,,,,905773,001,2024-07-11_12h17.48.261,untitled,2023.2.3,59.88124351721431,2024-07-11 12h17.56.671028 +0200,
C:\Users\david\OneDrive\Documentos\GitHub\OpenBrains\coche_autonomo\pngs\31.png,C:\Users\david\OneDrive\Documentos\GitHub\OpenBrains\coche_autonomo\pngs\32.png,-1,1,1,0,1,0,1,-1,-1,0,-1,0,0,24,24,15,32.45757849999791,,,,,,,,,,,,,,,,,,,,,,,,,,,,,,,,,,,,,,,,,,,32.325941299997794,32.45757849999791,32.45757849999791,32.45757849999791,32.57586489999812,left,0.11657529999502003,None,,,,,,,,,,,,,,905773,001,2024-07-11_12h17.48.261,untitled,2023.2.3,59.88124351721431,2024-07-11 12h17.56.671028 +0200,
C:\Users\david\OneDrive\Documentos\GitHub\OpenBrains\coche_autonomo\pngs\61.png,C:\Users\david\OneDrive\Documentos\GitHub\OpenBrains\coche_autonomo\pngs\62.png,0,1,1,0,-1,0,0,-1,-1,0,1,0,0,25,25,30,32.726718800004164,,,,,,,,,,,,,,,,,,,,,,,,,,,,,,,,,,,,,,,,,,,32.57620200000383,32.726718800004164,32.726718800004164,32.726718800004164,32.79242140000133,right,0.06361150000157068,None,,,,,,,,,,,,,,905773,001,2024-07-11_12h17.48.261,untitled,2023.2.3,59.88124351721431,2024-07-11 12h17.56.671028 +0200,
C:\Users\david\OneDrive\Documentos\GitHub\OpenBrains\coche_autonomo\pngs\17.png,C:\Users\david\OneDrive\Documentos\GitHub\OpenBrains\coche_autonomo\pngs\18.png,-1,-1,1,0,1,0,1,1,-1,0,-1,0,0,26,26,8,32.93849770000088,,,,,,,,,,,,,,,,,,,,,,,,,,,,,,,,,,,,,,,,,,,32.792741199999,32.93849770000088,32.93849770000088,32.93849770000088,33.04313700000057,right,0.09152069999981904,None,,,,,,,,,,,,,,905773,001,2024-07-11_12h17.48.261,untitled,2023.2.3,59.88124351721431,2024-07-11 12h17.56.671028 +0200,
C:\Users\david\OneDrive\Documentos\GitHub\OpenBrains\coche_autonomo\pngs\23.png,C:\Users\david\OneDrive\Documentos\GitHub\OpenBrains\coche_autonomo\pngs\24.png,1,1,1,0,1,0,-1,-1,-1,0,-1,0,0,27,27,11,33.19052740000188,,,,,,,,,,,,,,,,,,,,,,,,,,,,,,,,,,,,,,,,,,,33.043439000000944,33.19052740000188,33.19052740000188,33.19052740000188,33.342773000003945,left,0.14431139999942388,None,,,,,,,,,,,,,,905773,001,2024-07-11_12h17.48.261,untitled,2023.2.3,59.88124351721431,2024-07-11 12h17.56.671028 +0200,
C:\Users\david\OneDrive\Documentos\GitHub\OpenBrains\coche_autonomo\pngs\57.png,C:\Users\david\OneDrive\Documentos\GitHub\OpenBrains\coche_autonomo\pngs\58.png,0,-1,1,0,1,0,0,1,-1,0,-1,0,0,28,28,28,33.493357400002424,,,,,,,,,,,,,,,,,,,,,,,,,,,,,,,,,,,,,,,,,,,33.343143999998574,33.493357400002424,33.493357400002424,33.493357400002424,33.64386950000335,right,0.14399750000302447,None,,,,,,,,,,,,,,905773,001,2024-07-11_12h17.48.261,untitled,2023.2.3,59.88124351721431,2024-07-11 12h17.56.671028 +0200,
C:\Users\david\OneDrive\Documentos\GitHub\OpenBrains\coche_autonomo\pngs\19.png,C:\Users\david\OneDrive\Documentos\GitHub\OpenBrains\coche_autonomo\pngs\20.png,-1,-1,1,0,-1,0,1,1,-1,0,1,0,0,29,29,9,33.79233380000369,,,,,,,,,,,,,,,,,,,,,,,,,,,,,,,,,,,,,,,,,,,33.644175900000846,33.79233380000369,33.79233380000369,33.79233380000369,33.911235400002624,left,0.1008090000032098,None,,,,,,,,,,,,,,905773,001,2024-07-11_12h17.48.261,untitled,2023.2.3,59.88124351721431,2024-07-11 12h17.56.671028 +0200,
C:\Users\david\OneDrive\Documentos\GitHub\OpenBrains\coche_autonomo\pngs\47.png,C:\Users\david\OneDrive\Documentos\GitHub\OpenBrains\coche_autonomo\pngs\48.png,0,1,1,1,1,0,0,-1,-1,-1,-1,0,0,30,30,23,34.04828570000245,,,,,,,,,,,,,,,,,,,,,,,,,,,,,,,,,,,,,,,,,,,33.91158440000436,34.04828570000245,34.04828570000245,34.04828570000245,34.060386000004655,left,0.004958199999236967,None,,,,,,,,,,,,,,905773,001,2024-07-11_12h17.48.261,untitled,2023.2.3,59.88124351721431,2024-07-11 12h17.56.671028 +0200,
C:\Users\david\OneDrive\Documentos\GitHub\OpenBrains\coche_autonomo\pngs\77.png,C:\Users\david\OneDrive\Documentos\GitHub\OpenBrains\coche_autonomo\pngs\78.png,0,1,1,0,-1,-1,0,-1,-1,0,1,1,0,31,31,38,34.20818470000086,,,,,,,,,,,,,,,,,,,,,,,,,,,,,,,,,,,,,,,,,,,34.060706900003424,34.20818470000086,34.20818470000086,34.20818470000086,34.24446660000103,left,0.021713800000725314,None,,,,,,,,,,,,,,905773,001,2024-07-11_12h17.48.261,untitled,2023.2.3,59.88124351721431,2024-07-11 12h17.56.671028 +0200,
C:\Users\david\OneDrive\Documentos\GitHub\OpenBrains\coche_autonomo\pngs\39.png,C:\Users\david\OneDrive\Documentos\GitHub\OpenBrains\coche_autonomo\pngs\40.png,0,1,1,0,1,0,0,-1,-1,0,-1,0,0,32,32,19,34.39360049999959,,,,,,,,,,,,,,,,,,,,,,,,,,,,,,,,,,,,,,,,,,,34.244905100000324,34.39360049999959,34.39360049999959,34.39360049999959,34.49465369999962,right,0.09226769999804674,None,,,,,,,,,,,,,,905773,001,2024-07-11_12h17.48.261,untitled,2023.2.3,59.88124351721431,2024-07-11 12h17.56.671028 +0200,
C:\Users\david\OneDrive\Documentos\GitHub\OpenBrains\coche_autonomo\pngs\33.png,C:\Users\david\OneDrive\Documentos\GitHub\OpenBrains\coche_autonomo\pngs\34.png,0,-1,1,0,1,0,0,1,-1,0,-1,0,0,33,33,16,34.64468869999837,,,,,,,,,,,,,,,,,,,,,,,,,,,,,,,,,,,,,,,,,,,34.4950405999989,34.64468869999837,34.64468869999837,34.64468869999837,34.8396236999979,left,0.19300990000192542,None,,,,,,,,,,,,,,905773,001,2024-07-11_12h17.48.261,untitled,2023.2.3,59.88124351721431,2024-07-11 12h17.56.671028 +0200,
C:\Users\david\OneDrive\Documentos\GitHub\OpenBrains\coche_autonomo\pngs\37.png,C:\Users\david\OneDrive\Documentos\GitHub\OpenBrains\coche_autonomo\pngs\38.png,0,1,1,0,-1,0,0,-1,-1,0,1,0,0,34,34,18,34.97143080000387,,,,,,,,,,,,,,,,,,,,,,,,,,,,,,,,,,,,,,,,,,,34.840493000003335,34.97143080000387,34.97143080000387,34.97143080000387,35.211591600003885,right,0.23407910000241827,None,,,,,,,,,,,,,,905773,001,2024-07-11_12h17.48.261,untitled,2023.2.3,59.88124351721431,2024-07-11 12h17.56.671028 +0200,
C:\Users\david\OneDrive\Documentos\GitHub\OpenBrains\coche_autonomo\pngs\49.png,C:\Users\david\OneDrive\Documentos\GitHub\OpenBrains\coche_autonomo\pngs\50.png,0,-1,1,1,1,0,0,1,-1,-1,-1,0,0,35,35,24,35.338422300003,,,,,,,,,,,,,,,,,,,,,,,,,,,,,,,,,,,,,,,,,,,35.21191460000409,35.338422300003,35.338422300003,35.338422300003,35.59573850000015,right,0.24325459999818122,None,,,,,,,,,,,,,,905773,001,2024-07-11_12h17.48.261,untitled,2023.2.3,59.88124351721431,2024-07-11 12h17.56.671028 +0200,
C:\Users\david\OneDrive\Documentos\GitHub\OpenBrains\coche_autonomo\pngs\69.png,C:\Users\david\OneDrive\Documentos\GitHub\OpenBrains\coche_autonomo\pngs\70.png,0,1,1,0,-1,1,0,-1,-1,0,1,-1,0,36,36,34,35.724292400002014,,,,,,,,,,,,,,,,,,,,,,,,,,,,,,,,,,,,,,,,,,,35.59609189999901,35.724292400002014,35.724292400002014,35.724292400002014,36.3626019000003,right,0.6260346999988542,None,,,,,,,,,,,,,,905773,001,2024-07-11_12h17.48.261,untitled,2023.2.3,59.88124351721431,2024-07-11 12h17.56.671028 +0200,
C:\Users\david\OneDrive\Documentos\GitHub\OpenBrains\coche_autonomo\pngs\35.png,C:\Users\david\OneDrive\Documentos\GitHub\OpenBrains\coche_autonomo\pngs\36.png,0,-1,1,0,-1,0,0,1,-1,0,1,0,0,37,37,17,36.50001460000203,,,,,,,,,,,,,,,,,,,,,,,,,,,,,,,,,,,,,,,,,,,36.36292569999932,36.50001460000203,36.50001460000203,36.50001460000203,36.57917029999953,left,0.06657180000183871,None,,,,,,,,,,,,,,905773,001,2024-07-11_12h17.48.261,untitled,2023.2.3,59.88124351721431,2024-07-11 12h17.56.671028 +0200,
C:\Users\david\OneDrive\Documentos\GitHub\OpenBrains\coche_autonomo\pngs\65.png,C:\Users\david\OneDrive\Documentos\GitHub\OpenBrains\coche_autonomo\pngs\66.png,0,-1,1,0,1,-1,0,1,-1,0,-1,1,0,38,38,32,36.72182949999842,,,,,,,,,,,,,,,,,,,,,,,,,,,,,,,,,,,,,,,,,,,36.579506900001434,36.72182949999842,36.72182949999842,36.72182949999842,36.996729999998934,right,0.26792650000425056,None,,,,,,,,,,,,,,905773,001,2024-07-11_12h17.48.261,untitled,2023.2.3,59.88124351721431,2024-07-11 12h17.56.671028 +0200,
C:\Users\david\OneDrive\Documentos\GitHub\OpenBrains\coche_autonomo\pngs\73.png,C:\Users\david\OneDrive\Documentos\GitHub\OpenBrains\coche_autonomo\pngs\74.png,0,-1,1,0,1,1,0,1,-1,0,-1,-1,0,39,39,36,37.13363969999773,,,,,,,,,,,,,,,,,,,,,,,,,,,,,,,,,,,,,,,,,,,36.99706460000016,37.13363969999773,37.13363969999773,37.13363969999773,37.329891000001226,left,0.19214909999573138,None,,,,,,,,,,,,,,905773,001,2024-07-11_12h17.48.261,untitled,2023.2.3,59.88124351721431,2024-07-11 12h17.56.671028 +0200,
,,,,,,,,,,,,,,,,,,,,,,,,,,,,,,,,,,,,,,,,,,,,,,,,,,,,,,,,,,,,,,,,,,,,,37.33014450000337,37.355377699997916,37.355377699997916,37.355377699997916,37.355377699997916,37.355377699997916,37.355377699997916,37.355377699997916,37.355377699997916,94.10449510000035,space,56.746147899997595,None,905773,001,2024-07-11_12h17.48.261,untitled,2023.2.3,59.88124351721431,2024-07-11 12h17.56.671028 +0200,
