imagen1,imagen2,hm1,cp1,ai1,pa1,vr1,cl1,hm2,cp2,ai2,pa2,vr2,cl2,trials.thisRepN,trials.thisTrialN,trials.thisN,trials.thisIndex,thisRow.t,notes,Portada.started,image_11.started,text_19.started,Portada.stopped,Instruccions.started,text_8.started,key_resp_3.started,Instruccions.stopped,key_resp_3.keys,key_resp_3.rt,key_resp_3.duration,instructions_2.started,image_3.started,image_4.started,key_resp_4.started,text_9.started,text_10.started,instructions_2.stopped,key_resp_4.keys,key_resp_4.rt,key_resp_4.duration,instructions_3.started,text_11.started,text_12.started,text_13.started,text_14.started,text_15.started,text_16.started,text_17.started,image_5.started,key_resp_5.started,text_18.started,image_6.started,image_7.started,image_8.started,image_9.started,image_10.started,instructions_3.stopped,key_resp_5.keys,key_resp_5.rt,key_resp_5.duration,trial.started,image.started,image_2.started,key_resp.started,trial.stopped,key_resp.keys,key_resp.rt,key_resp.duration,results.started,text.started,text_2.started,text_3.started,text_4.started,text_5.started,text_6.started,text_7.started,key_resp_2.started,results.stopped,key_resp_2.keys,key_resp_2.rt,key_resp_2.duration,participant,session,date,expName,psychopyVersion,frameRate,expStart,
,,,,,,,,,,,,,,,,,,,,0.0036346000124467537,0.03619740001158789,0.03619740001158789,5.014226700004656,5.014242700010072,5.025719000012032,5.025719000012032,27.84637000001385,space,22.818496399995638,None,,,,,,,,,,,,,,,,,,,,,,,,,,,,,,,,,,,,,,,,,,,,,,,,,,,,DDD,001,2024-07-12_10h12.04.868,untitled,2023.2.3,60.036766514456566,2024-07-12 10h12.18.196458 +0200,
,,,,,,,,,,,,,,,,,,,,,,,,,,,,,,,27.846411300008185,27.864752300010878,27.864752300010878,27.864752300010878,27.864752300010878,27.864752300010878,44.48677890001272,right,16.617486699993606,None,,,,,,,,,,,,,,,,,,,,,,,,,,,,,,,,,,,,,,,,,,DDD,001,2024-07-12_10h12.04.868,untitled,2023.2.3,60.036766514456566,2024-07-12 10h12.18.196458 +0200,
,,,,,,,,,,,,,,,,,,,,,,,,,,,,,,,,,,,,,,,,,44.48681720001332,44.50177580000309,44.50177580000309,44.50177580000309,44.50177580000309,44.50177580000309,44.50177580000309,44.50177580000309,44.50177580000309,44.50177580000309,44.50177580000309,44.50177580000309,44.50177580000309,44.50177580000309,44.50177580000309,44.50177580000309,60.72421670000767,space,16.205912399993395,None,,,,,,,,,,,,,,,,,,,,,,DDD,001,2024-07-12_10h12.04.868,untitled,2023.2.3,60.036766514456566,2024-07-12 10h12.18.196458 +0200,
C:\Users\david\OneDrive\Documentos\GitHub\OpenBrains\coche_autonomo\pngs\19.png,C:\Users\david\OneDrive\Documentos\GitHub\OpenBrains\coche_autonomo\pngs\20.png,-1,-1,1,0,-1,0,1,1,-1,0,1,0,0,0,0,9,60.91124230000423,,,,,,,,,,,,,,,,,,,,,,,,,,,,,,,,,,,,,,,,,,,60.73953240000992,60.91124230000423,60.91124230000423,60.91124230000423,75.46776950001367,left,14.548661699998775,None,,,,,,,,,,,,,,DDD,001,2024-07-12_10h12.04.868,untitled,2023.2.3,60.036766514456566,2024-07-12 10h12.18.196458 +0200,
C:\Users\david\OneDrive\Documentos\GitHub\OpenBrains\coche_autonomo\pngs\7.png,C:\Users\david\OneDrive\Documentos\GitHub\OpenBrains\coche_autonomo\pngs\8.png,0,1,1,0,1,0,0,-1,-1,0,-1,0,0,1,1,3,75.63522550000926,,,,,,,,,,,,,,,,,,,,,,,,,,,,,,,,,,,,,,,,,,,75.47642530000303,75.63522550000926,75.63522550000926,75.63522550000926,90.45818820000568,left,14.808041600001161,None,,,,,,,,,,,,,,DDD,001,2024-07-12_10h12.04.868,untitled,2023.2.3,60.036766514456566,2024-07-12 10h12.18.196458 +0200,
C:\Users\david\OneDrive\Documentos\GitHub\OpenBrains\coche_autonomo\pngs\9.png,C:\Users\david\OneDrive\Documentos\GitHub\OpenBrains\coche_autonomo\pngs\10.png,0,-1,1,0,1,0,0,1,-1,0,-1,0,0,2,2,4,90.64076350000687,,,,,,,,,,,,,,,,,,,,,,,,,,,,,,,,,,,,,,,,,,,90.45881770001142,90.64076350000687,90.64076350000687,90.64076350000687,96.53813870000886,left,5.880280199999106,None,,,,,,,,,,,,,,DDD,001,2024-07-12_10h12.04.868,untitled,2023.2.3,60.036766514456566,2024-07-12 10h12.18.196458 +0200,
C:\Users\david\OneDrive\Documentos\GitHub\OpenBrains\coche_autonomo\pngs\57.png,C:\Users\david\OneDrive\Documentos\GitHub\OpenBrains\coche_autonomo\pngs\58.png,0,-1,1,0,1,0,0,1,-1,0,-1,0,0,3,3,28,96.69214990000182,,,,,,,,,,,,,,,,,,,,,,,,,,,,,,,,,,,,,,,,,,,96.53881100000581,96.69214990000182,96.69214990000182,96.69214990000182,111.94355030001316,left,15.244903899991186,None,,,,,,,,,,,,,,DDD,001,2024-07-12_10h12.04.868,untitled,2023.2.3,60.036766514456566,2024-07-12 10h12.18.196458 +0200,
C:\Users\david\OneDrive\Documentos\GitHub\OpenBrains\coche_autonomo\pngs\33.png,C:\Users\david\OneDrive\Documentos\GitHub\OpenBrains\coche_autonomo\pngs\34.png,0,-1,1,0,1,0,0,1,-1,0,-1,0,0,4,4,16,112.11684960000275,,,,,,,,,,,,,,,,,,,,,,,,,,,,,,,,,,,,,,,,,,,111.94398100000399,112.11684960000275,112.11684960000275,112.11684960000275,115.15877570000885,left,3.030158300010953,None,,,,,,,,,,,,,,DDD,001,2024-07-12_10h12.04.868,untitled,2023.2.3,60.036766514456566,2024-07-12 10h12.18.196458 +0200,
C:\Users\david\OneDrive\Documentos\GitHub\OpenBrains\coche_autonomo\pngs\51.png,C:\Users\david\OneDrive\Documentos\GitHub\OpenBrains\coche_autonomo\pngs\52.png,0,-1,1,1,-1,0,0,1,-1,-1,1,0,0,5,5,25,115.35240760000306,,,,,,,,,,,,,,,,,,,,,,,,,,,,,,,,,,,,,,,,,,,115.15947280000546,115.35240760000306,115.35240760000306,115.35240760000306,118.78971350000938,left,3.429524000006495,None,,,,,,,,,,,,,,DDD,001,2024-07-12_10h12.04.868,untitled,2023.2.3,60.036766514456566,2024-07-12 10h12.18.196458 +0200,
C:\Users\david\OneDrive\Documentos\GitHub\OpenBrains\coche_autonomo\pngs\21.png,C:\Users\david\OneDrive\Documentos\GitHub\OpenBrains\coche_autonomo\pngs\22.png,1,1,1,0,-1,0,-1,-1,-1,0,1,0,0,6,6,10,118.9713572000037,,,,,,,,,,,,,,,,,,,,,,,,,,,,,,,,,,,,,,,,,,,118.79017040001054,118.9713572000037,118.9713572000037,118.9713572000037,125.36917090001225,right,6.381278900007601,None,,,,,,,,,,,,,,DDD,001,2024-07-12_10h12.04.868,untitled,2023.2.3,60.036766514456566,2024-07-12 10h12.18.196458 +0200,
C:\Users\david\OneDrive\Documentos\GitHub\OpenBrains\coche_autonomo\pngs\49.png,C:\Users\david\OneDrive\Documentos\GitHub\OpenBrains\coche_autonomo\pngs\50.png,0,-1,1,1,1,0,0,1,-1,-1,-1,0,0,7,7,24,125.53985480000847,,,,,,,,,,,,,,,,,,,,,,,,,,,,,,,,,,,,,,,,,,,125.36990110001352,125.53985480000847,125.53985480000847,125.53985480000847,127.93465480000305,left,2.3922584999963874,None,,,,,,,,,,,,,,DDD,001,2024-07-12_10h12.04.868,untitled,2023.2.3,60.036766514456566,2024-07-12 10h12.18.196458 +0200,
C:\Users\david\OneDrive\Documentos\GitHub\OpenBrains\coche_autonomo\pngs\11.png,C:\Users\david\OneDrive\Documentos\GitHub\OpenBrains\coche_autonomo\pngs\12.png,0,-1,1,0,-1,0,0,1,-1,0,1,0,0,8,8,5,128.10419750001165,,,,,,,,,,,,,,,,,,,,,,,,,,,,,,,,,,,,,,,,,,,127.93569910000951,128.10419750001165,128.10419750001165,128.10419750001165,133.1804841000121,left,5.059603100002278,None,,,,,,,,,,,,,,DDD,001,2024-07-12_10h12.04.868,untitled,2023.2.3,60.036766514456566,2024-07-12 10h12.18.196458 +0200,
C:\Users\david\OneDrive\Documentos\GitHub\OpenBrains\coche_autonomo\pngs\67.png,C:\Users\david\OneDrive\Documentos\GitHub\OpenBrains\coche_autonomo\pngs\68.png,0,-1,1,0,-1,-1,0,1,-1,0,1,1,0,9,9,33,133.33798100000422,,,,,,,,,,,,,,,,,,,,,,,,,,,,,,,,,,,,,,,,,,,133.1809745000064,133.33798100000422,133.33798100000422,133.33798100000422,145.57379320000473,left,12.221733700003824,None,,,,,,,,,,,,,,DDD,001,2024-07-12_10h12.04.868,untitled,2023.2.3,60.036766514456566,2024-07-12 10h12.18.196458 +0200,
C:\Users\david\OneDrive\Documentos\GitHub\OpenBrains\coche_autonomo\pngs\79.png,C:\Users\david\OneDrive\Documentos\GitHub\OpenBrains\coche_autonomo\pngs\80.png,0,1,1,0,1,-1,0,-1,-1,0,-1,1,0,10,10,39,145.7440498000069,,,,,,,,,,,,,,,,,,,,,,,,,,,,,,,,,,,,,,,,,,,145.57458570000017,145.7440498000069,145.7440498000069,145.7440498000069,156.9324067000125,right,11.17598729999736,None,,,,,,,,,,,,,,DDD,001,2024-07-12_10h12.04.868,untitled,2023.2.3,60.036766514456566,2024-07-12 10h12.18.196458 +0200,
C:\Users\david\OneDrive\Documentos\GitHub\OpenBrains\coche_autonomo\pngs\37.png,C:\Users\david\OneDrive\Documentos\GitHub\OpenBrains\coche_autonomo\pngs\38.png,0,1,1,0,-1,0,0,-1,-1,0,1,0,0,11,11,18,157.10683420000714,,,,,,,,,,,,,,,,,,,,,,,,,,,,,,,,,,,,,,,,,,,156.93299720001232,157.10683420000714,157.10683420000714,157.10683420000714,165.84316340000078,left,8.72157620001235,None,,,,,,,,,,,,,,DDD,001,2024-07-12_10h12.04.868,untitled,2023.2.3,60.036766514456566,2024-07-12 10h12.18.196458 +0200,
C:\Users\david\OneDrive\Documentos\GitHub\OpenBrains\coche_autonomo\pngs\61.png,C:\Users\david\OneDrive\Documentos\GitHub\OpenBrains\coche_autonomo\pngs\62.png,0,1,1,0,-1,0,0,-1,-1,0,1,0,0,12,12,30,166.00118610000936,,,,,,,,,,,,,,,,,,,,,,,,,,,,,,,,,,,,,,,,,,,165.84384550001414,166.00118610000936,166.00118610000936,166.00118610000936,168.80784980001044,right,2.792031400007545,None,,,,,,,,,,,,,,DDD,001,2024-07-12_10h12.04.868,untitled,2023.2.3,60.036766514456566,2024-07-12 10h12.18.196458 +0200,
C:\Users\david\OneDrive\Documentos\GitHub\OpenBrains\coche_autonomo\pngs\63.png,C:\Users\david\OneDrive\Documentos\GitHub\OpenBrains\coche_autonomo\pngs\64.png,0,1,1,0,1,0,0,-1,-1,0,-1,0,0,13,13,31,168.98518590000458,,,,,,,,,,,,,,,,,,,,,,,,,,,,,,,,,,,,,,,,,,,168.80823680000321,168.98518590000458,168.98518590000458,168.98518590000458,170.98992270001327,right,1.988594299997203,None,,,,,,,,,,,,,,DDD,001,2024-07-12_10h12.04.868,untitled,2023.2.3,60.036766514456566,2024-07-12 10h12.18.196458 +0200,
C:\Users\david\OneDrive\Documentos\GitHub\OpenBrains\coche_autonomo\pngs\23.png,C:\Users\david\OneDrive\Documentos\GitHub\OpenBrains\coche_autonomo\pngs\24.png,1,1,1,0,1,0,-1,-1,-1,0,-1,0,0,14,14,11,171.13831400001072,,,,,,,,,,,,,,,,,,,,,,,,,,,,,,,,,,,,,,,,,,,170.99036110000452,171.13831400001072,171.13831400001072,171.13831400001072,195.5574803000054,right,24.40227120000054,None,,,,,,,,,,,,,,DDD,001,2024-07-12_10h12.04.868,untitled,2023.2.3,60.036766514456566,2024-07-12 10h12.18.196458 +0200,
C:\Users\david\OneDrive\Documentos\GitHub\OpenBrains\coche_autonomo\pngs\75.png,C:\Users\david\OneDrive\Documentos\GitHub\OpenBrains\coche_autonomo\pngs\76.png,0,-1,1,0,-1,1,0,1,-1,0,1,-1,0,15,15,37,195.72878970000602,,,,,,,,,,,,,,,,,,,,,,,,,,,,,,,,,,,,,,,,,,,195.55810400001064,195.72878970000602,195.72878970000602,195.72878970000602,202.00345500001276,left,6.2687378999980865,None,,,,,,,,,,,,,,DDD,001,2024-07-12_10h12.04.868,untitled,2023.2.3,60.036766514456566,2024-07-12 10h12.18.196458 +0200,
C:\Users\david\OneDrive\Documentos\GitHub\OpenBrains\coche_autonomo\pngs\31.png,C:\Users\david\OneDrive\Documentos\GitHub\OpenBrains\coche_autonomo\pngs\32.png,-1,1,1,0,1,0,1,-1,-1,0,-1,0,0,16,16,15,202.16774680001254,,,,,,,,,,,,,,,,,,,,,,,,,,,,,,,,,,,,,,,,,,,202.0038603000139,202.16774680001254,202.16774680001254,202.16774680001254,207.96633880000445,right,5.79347499999858,None,,,,,,,,,,,,,,DDD,001,2024-07-12_10h12.04.868,untitled,2023.2.3,60.036766514456566,2024-07-12 10h12.18.196458 +0200,
C:\Users\david\OneDrive\Documentos\GitHub\OpenBrains\coche_autonomo\pngs\45.png,C:\Users\david\OneDrive\Documentos\GitHub\OpenBrains\coche_autonomo\pngs\46.png,0,1,1,1,-1,0,0,-1,-1,-1,1,0,0,17,17,22,208.14435210000374,,,,,,,,,,,,,,,,,,,,,,,,,,,,,,,,,,,,,,,,,,,207.96676640000078,208.14435210000374,208.14435210000374,208.14435210000374,210.9976333000086,left,2.843908899987582,None,,,,,,,,,,,,,,DDD,001,2024-07-12_10h12.04.868,untitled,2023.2.3,60.036766514456566,2024-07-12 10h12.18.196458 +0200,
C:\Users\david\OneDrive\Documentos\GitHub\OpenBrains\coche_autonomo\pngs\27.png,C:\Users\david\OneDrive\Documentos\GitHub\OpenBrains\coche_autonomo\pngs\28.png,1,-1,1,0,-1,0,-1,1,-1,0,1,0,0,18,18,13,211.18612260000373,,,,,,,,,,,,,,,,,,,,,,,,,,,,,,,,,,,,,,,,,,,210.99821520000114,211.18612260000373,211.18612260000373,211.18612260000373,221.7404974000092,left,10.543346100006602,None,,,,,,,,,,,,,,DDD,001,2024-07-12_10h12.04.868,untitled,2023.2.3,60.036766514456566,2024-07-12 10h12.18.196458 +0200,
C:\Users\david\OneDrive\Documentos\GitHub\OpenBrains\coche_autonomo\pngs\29.png,C:\Users\david\OneDrive\Documentos\GitHub\OpenBrains\coche_autonomo\pngs\30.png,-1,1,1,0,-1,0,1,-1,-1,0,1,0,0,19,19,14,221.93640590000723,,,,,,,,,,,,,,,,,,,,,,,,,,,,,,,,,,,,,,,,,,,221.74096330000611,221.93640590000723,221.93640590000723,221.93640590000723,224.30647460000182,right,2.36848619999364,None,,,,,,,,,,,,,,DDD,001,2024-07-12_10h12.04.868,untitled,2023.2.3,60.036766514456566,2024-07-12 10h12.18.196458 +0200,
C:\Users\david\OneDrive\Documentos\GitHub\OpenBrains\coche_autonomo\pngs\53.png,C:\Users\david\OneDrive\Documentos\GitHub\OpenBrains\coche_autonomo\pngs\54.png,0,1,1,-1,-1,0,0,-1,-1,1,1,0,0,20,20,26,224.47125540001434,,,,,,,,,,,,,,,,,,,,,,,,,,,,,,,,,,,,,,,,,,,224.30699720000848,224.47125540001434,224.47125540001434,224.47125540001434,226.75425830000313,right,2.2802729999966687,None,,,,,,,,,,,,,,DDD,001,2024-07-12_10h12.04.868,untitled,2023.2.3,60.036766514456566,2024-07-12 10h12.18.196458 +0200,
C:\Users\david\OneDrive\Documentos\GitHub\OpenBrains\coche_autonomo\pngs\13.png,C:\Users\david\OneDrive\Documentos\GitHub\OpenBrains\coche_autonomo\pngs\14.png,0,1,1,0,-1,0,0,-1,-1,0,1,0,0,21,21,6,226.92354510001314,,,,,,,,,,,,,,,,,,,,,,,,,,,,,,,,,,,,,,,,,,,226.75466310000047,226.92354510001314,226.92354510001314,226.92354510001314,232.50107490000664,right,5.57401419999951,None,,,,,,,,,,,,,,DDD,001,2024-07-12_10h12.04.868,untitled,2023.2.3,60.036766514456566,2024-07-12 10h12.18.196458 +0200,
C:\Users\david\OneDrive\Documentos\GitHub\OpenBrains\coche_autonomo\pngs\5.png,C:\Users\david\OneDrive\Documentos\GitHub\OpenBrains\coche_autonomo\pngs\6.png,0,1,1,0,-1,0,0,-1,-1,0,1,0,0,22,22,2,232.65947480000614,,,,,,,,,,,,,,,,,,,,,,,,,,,,,,,,,,,,,,,,,,,232.50175890000537,232.65947480000614,232.65947480000614,232.65947480000614,234.66614220000338,right,2.0055520000023535,None,,,,,,,,,,,,,,DDD,001,2024-07-12_10h12.04.868,untitled,2023.2.3,60.036766514456566,2024-07-12 10h12.18.196458 +0200,
C:\Users\david\OneDrive\Documentos\GitHub\OpenBrains\coche_autonomo\pngs\17.png,C:\Users\david\OneDrive\Documentos\GitHub\OpenBrains\coche_autonomo\pngs\18.png,-1,-1,1,0,1,0,1,1,-1,0,-1,0,0,23,23,8,234.82563210000808,,,,,,,,,,,,,,,,,,,,,,,,,,,,,,,,,,,,,,,,,,,234.66654500000004,234.82563210000808,234.82563210000808,234.82563210000808,257.36821370001417,left,22.536339600002975,None,,,,,,,,,,,,,,DDD,001,2024-07-12_10h12.04.868,untitled,2023.2.3,60.036766514456566,2024-07-12 10h12.18.196458 +0200,
C:\Users\david\OneDrive\Documentos\GitHub\OpenBrains\coche_autonomo\pngs\35.png,C:\Users\david\OneDrive\Documentos\GitHub\OpenBrains\coche_autonomo\pngs\36.png,0,-1,1,0,-1,0,0,1,-1,0,1,0,0,24,24,17,257.53868100000545,,,,,,,,,,,,,,,,,,,,,,,,,,,,,,,,,,,,,,,,,,,257.36890290000883,257.53868100000545,257.53868100000545,257.53868100000545,316.6147156000079,left,59.06406829999469,None,,,,,,,,,,,,,,DDD,001,2024-07-12_10h12.04.868,untitled,2023.2.3,60.036766514456566,2024-07-12 10h12.18.196458 +0200,
C:\Users\david\OneDrive\Documentos\GitHub\OpenBrains\coche_autonomo\pngs\15.png,C:\Users\david\OneDrive\Documentos\GitHub\OpenBrains\coche_autonomo\pngs\16.png,0,1,1,0,1,0,0,-1,-1,0,-1,0,0,25,25,7,316.78218050001306,,,,,,,,,,,,,,,,,,,,,,,,,,,,,,,,,,,,,,,,,,,316.61546260000614,316.78218050001306,316.78218050001306,316.78218050001306,329.92303260001063,right,13.13257820000581,None,,,,,,,,,,,,,,DDD,001,2024-07-12_10h12.04.868,untitled,2023.2.3,60.036766514456566,2024-07-12 10h12.18.196458 +0200,
C:\Users\david\OneDrive\Documentos\GitHub\OpenBrains\coche_autonomo\pngs\41.png,C:\Users\david\OneDrive\Documentos\GitHub\OpenBrains\coche_autonomo\pngs\42.png,0,-1,1,-1,1,0,0,1,-1,1,-1,0,0,26,26,20,330.0960946000123,,,,,,,,,,,,,,,,,,,,,,,,,,,,,,,,,,,,,,,,,,,329.92358310001146,330.0960946000123,330.0960946000123,330.0960946000123,334.4527587000048,right,4.354505099996459,None,,,,,,,,,,,,,,DDD,001,2024-07-12_10h12.04.868,untitled,2023.2.3,60.036766514456566,2024-07-12 10h12.18.196458 +0200,
C:\Users\david\OneDrive\Documentos\GitHub\OpenBrains\coche_autonomo\pngs\43.png,C:\Users\david\OneDrive\Documentos\GitHub\OpenBrains\coche_autonomo\pngs\44.png,0,-1,1,-1,-1,0,0,1,-1,1,1,0,0,27,27,21,334.63090690001263,,,,,,,,,,,,,,,,,,,,,,,,,,,,,,,,,,,,,,,,,,,334.4532731000072,334.63090690001263,334.63090690001263,334.63090690001263,336.2855942000024,right,1.6462573000026168,None,,,,,,,,,,,,,,DDD,001,2024-07-12_10h12.04.868,untitled,2023.2.3,60.036766514456566,2024-07-12 10h12.18.196458 +0200,
C:\Users\david\OneDrive\Documentos\GitHub\OpenBrains\coche_autonomo\pngs\77.png,C:\Users\david\OneDrive\Documentos\GitHub\OpenBrains\coche_autonomo\pngs\78.png,0,1,1,0,-1,-1,0,-1,-1,0,1,1,0,28,28,38,336.4598013000068,,,,,,,,,,,,,,,,,,,,,,,,,,,,,,,,,,,,,,,,,,,336.2862092000141,336.4598013000068,336.4598013000068,336.4598013000068,344.4307094000105,right,7.9577023000019835,None,,,,,,,,,,,,,,DDD,001,2024-07-12_10h12.04.868,untitled,2023.2.3,60.036766514456566,2024-07-12 10h12.18.196458 +0200,
C:\Users\david\OneDrive\Documentos\GitHub\OpenBrains\coche_autonomo\pngs\55.png,C:\Users\david\OneDrive\Documentos\GitHub\OpenBrains\coche_autonomo\pngs\56.png,0,1,1,-1,1,0,0,-1,-1,1,-1,0,0,29,29,27,344.60299140001007,,,,,,,,,,,,,,,,,,,,,,,,,,,,,,,,,,,,,,,,,,,344.4313967000053,344.60299140001007,344.60299140001007,344.60299140001007,346.06284890000825,right,1.4436721000092803,None,,,,,,,,,,,,,,DDD,001,2024-07-12_10h12.04.868,untitled,2023.2.3,60.036766514456566,2024-07-12 10h12.18.196458 +0200,
C:\Users\david\OneDrive\Documentos\GitHub\OpenBrains\coche_autonomo\pngs\47.png,C:\Users\david\OneDrive\Documentos\GitHub\OpenBrains\coche_autonomo\pngs\48.png,0,1,1,1,1,0,0,-1,-1,-1,-1,0,0,30,30,23,346.22306310001295,,,,,,,,,,,,,,,,,,,,,,,,,,,,,,,,,,,,,,,,,,,346.063381400003,346.22306310001295,346.22306310001295,346.22306310001295,348.5936270000093,left,2.36007690000406,None,,,,,,,,,,,,,,DDD,001,2024-07-12_10h12.04.868,untitled,2023.2.3,60.036766514456566,2024-07-12 10h12.18.196458 +0200,
C:\Users\david\OneDrive\Documentos\GitHub\OpenBrains\coche_autonomo\pngs\71.png,C:\Users\david\OneDrive\Documentos\GitHub\OpenBrains\coche_autonomo\pngs\72.png,0,1,1,0,1,1,0,-1,-1,0,-1,-1,0,31,31,35,348.7668980000017,,,,,,,,,,,,,,,,,,,,,,,,,,,,,,,,,,,,,,,,,,,348.5940561000025,348.7668980000017,348.7668980000017,348.7668980000017,353.3742142000119,right,4.590853999994579,None,,,,,,,,,,,,,,DDD,001,2024-07-12_10h12.04.868,untitled,2023.2.3,60.036766514456566,2024-07-12 10h12.18.196458 +0200,
C:\Users\david\OneDrive\Documentos\GitHub\OpenBrains\coche_autonomo\pngs\73.png,C:\Users\david\OneDrive\Documentos\GitHub\OpenBrains\coche_autonomo\pngs\74.png,0,-1,1,0,1,1,0,1,-1,0,-1,-1,0,32,32,36,353.5459300000075,,,,,,,,,,,,,,,,,,,,,,,,,,,,,,,,,,,,,,,,,,,353.37479160001385,353.5459300000075,353.5459300000075,353.5459300000075,358.9381652000011,left,5.383182999998098,None,,,,,,,,,,,,,,DDD,001,2024-07-12_10h12.04.868,untitled,2023.2.3,60.036766514456566,2024-07-12 10h12.18.196458 +0200,
C:\Users\david\OneDrive\Documentos\GitHub\OpenBrains\coche_autonomo\pngs\1.png,C:\Users\david\OneDrive\Documentos\GitHub\OpenBrains\coche_autonomo\pngs\2.png,0,-1,1,0,1,0,0,1,-1,0,-1,0,0,33,33,0,359.09859430001234,,,,,,,,,,,,,,,,,,,,,,,,,,,,,,,,,,,,,,,,,,,358.9387676000042,359.09859430001234,359.09859430001234,359.09859430001234,361.3364946000074,left,2.235757199989166,None,,,,,,,,,,,,,,DDD,001,2024-07-12_10h12.04.868,untitled,2023.2.3,60.036766514456566,2024-07-12 10h12.18.196458 +0200,
C:\Users\david\OneDrive\Documentos\GitHub\OpenBrains\coche_autonomo\pngs\65.png,C:\Users\david\OneDrive\Documentos\GitHub\OpenBrains\coche_autonomo\pngs\66.png,0,-1,1,0,1,-1,0,1,-1,0,-1,1,0,34,34,32,361.503163100002,,,,,,,,,,,,,,,,,,,,,,,,,,,,,,,,,,,,,,,,,,,361.33726320001006,361.503163100002,361.503163100002,361.503163100002,372.96294320000743,left,11.458068399995682,None,,,,,,,,,,,,,,DDD,001,2024-07-12_10h12.04.868,untitled,2023.2.3,60.036766514456566,2024-07-12 10h12.18.196458 +0200,
C:\Users\david\OneDrive\Documentos\GitHub\OpenBrains\coche_autonomo\pngs\25.png,C:\Users\david\OneDrive\Documentos\GitHub\OpenBrains\coche_autonomo\pngs\26.png,1,-1,1,0,1,0,-1,1,-1,0,-1,0,0,35,35,12,373.12936170000467,,,,,,,,,,,,,,,,,,,,,,,,,,,,,,,,,,,,,,,,,,,372.963608200007,373.12936170000467,373.12936170000467,373.12936170000467,375.0101663000096,left,1.8760596999927657,None,,,,,,,,,,,,,,DDD,001,2024-07-12_10h12.04.868,untitled,2023.2.3,60.036766514456566,2024-07-12 10h12.18.196458 +0200,
C:\Users\david\OneDrive\Documentos\GitHub\OpenBrains\coche_autonomo\pngs\59.png,C:\Users\david\OneDrive\Documentos\GitHub\OpenBrains\coche_autonomo\pngs\60.png,0,-1,1,0,-1,0,0,1,-1,0,1,0,0,36,36,29,375.1801032000076,,,,,,,,,,,,,,,,,,,,,,,,,,,,,,,,,,,,,,,,,,,375.0106456000067,375.1801032000076,375.1801032000076,375.1801032000076,385.1215547000029,left,9.939888300010352,None,,,,,,,,,,,,,,DDD,001,2024-07-12_10h12.04.868,untitled,2023.2.3,60.036766514456566,2024-07-12 10h12.18.196458 +0200,
C:\Users\david\OneDrive\Documentos\GitHub\OpenBrains\coche_autonomo\pngs\3.png,C:\Users\david\OneDrive\Documentos\GitHub\OpenBrains\coche_autonomo\pngs\4.png,0,-1,1,0,-1,0,0,1,-1,0,1,0,0,37,37,1,385.2890711000073,,,,,,,,,,,,,,,,,,,,,,,,,,,,,,,,,,,,,,,,,,,385.1222057000123,385.2890711000073,385.2890711000073,385.2890711000073,386.6204839000129,left,1.3217492999974638,None,,,,,,,,,,,,,,DDD,001,2024-07-12_10h12.04.868,untitled,2023.2.3,60.036766514456566,2024-07-12 10h12.18.196458 +0200,
C:\Users\david\OneDrive\Documentos\GitHub\OpenBrains\coche_autonomo\pngs\39.png,C:\Users\david\OneDrive\Documentos\GitHub\OpenBrains\coche_autonomo\pngs\40.png,0,1,1,0,1,0,0,-1,-1,0,-1,0,0,38,38,19,386.7805739000032,,,,,,,,,,,,,,,,,,,,,,,,,,,,,,,,,,,,,,,,,,,386.6211757000128,386.7805739000032,386.7805739000032,386.7805739000032,393.4328038000094,left,6.641904799995245,None,,,,,,,,,,,,,,DDD,001,2024-07-12_10h12.04.868,untitled,2023.2.3,60.036766514456566,2024-07-12 10h12.18.196458 +0200,
C:\Users\david\OneDrive\Documentos\GitHub\OpenBrains\coche_autonomo\pngs\69.png,C:\Users\david\OneDrive\Documentos\GitHub\OpenBrains\coche_autonomo\pngs\70.png,0,1,1,0,-1,1,0,-1,-1,0,1,-1,0,39,39,34,393.60922270000447,,,,,,,,,,,,,,,,,,,,,,,,,,,,,,,,,,,,,,,,,,,393.4335734000051,393.60922270000447,393.60922270000447,393.60922270000447,400.3787847000058,left,6.7595699000085006,None,,,,,,,,,,,,,,DDD,001,2024-07-12_10h12.04.868,untitled,2023.2.3,60.036766514456566,2024-07-12 10h12.18.196458 +0200,
,,,,,,,,,,,,,,,,,,,,,,,,,,,,,,,,,,,,,,,,,,,,,,,,,,,,,,,,,,,,,,,,,,,,,400.37938670000585,400.4092645000055,400.4092645000055,400.4092645000055,400.4092645000055,400.4092645000055,400.4092645000055,400.4092645000055,400.4092645000055,441.18324210001447,space,40.75841279998713,None,DDD,001,2024-07-12_10h12.04.868,untitled,2023.2.3,60.036766514456566,2024-07-12 10h12.18.196458 +0200,
