texto,answer,color,trials.thisRepN,trials.thisTrialN,trials.thisN,trials.thisIndex,trials_2.thisRepN,trials_2.thisTrialN,trials_2.thisN,trials_2.thisIndex,trials_3.thisRepN,trials_3.thisTrialN,trials_3.thisN,trials_3.thisIndex,Instrucciones_texto.started,Instrucciones_texto.stopped,key_resp.keys,key_resp.rt,key_resp.started,key_resp.stopped,colores1.started,colores1.stopped,respuesta.keys,respuesta.corr,respuesta.rt,respuesta.started,respuesta.stopped,text_intructionses2.started,text_intructionses2.stopped,key_resp_2.keys,key_resp_2.rt,key_resp_2.started,key_resp_2.stopped,rectangulo.started,rectangulo.stopped,respuesta_rect.keys,respuesta_rect.corr,respuesta_rect.rt,respuesta_rect.started,respuesta_rect.stopped,text.started,text.stopped,key_resp_3.keys,key_resp_3.rt,key_resp_3.started,key_resp_3.stopped,colores2.started,colores2.stopped,respuesta_mix.keys,respuesta_mix.corr,respuesta_mix.rt,respuesta_mix.started,respuesta_mix.stopped,despedida.started,despedida.stopped,participant,session,date,expName,psychopyVersion,frameRate,
,,,,,,,,,,,,,,,15.948160100029781,None,space,0.9375473000109196,21.90801030001603,None,,,,,,,,,,,,,,,,,,,,,,,,,,,,,,,,,,,,davidsanchez,001,2023_Mar_08_1605,stroop_task,3.2.3,59.626310004344084,
verde,v,,0,0,0,20,,,,,,,,,,,,,,,22.95595939992927,None,"['n', 'v']",0,"[1.4152128999121487, 1.7790632999967784]",22.909982200013474,None,,,,,,,,,,,,,,,,,,,,,,,,,,,,,davidsanchez,001,2023_Mar_08_1605,stroop_task,3.2.3,59.626310004344084,
azul,a,,0,1,1,0,,,,,,,,,,,,,,,24.756172500085086,None,['a'],0,[0.8130606999620795],24.719621500000358,None,,,,,,,,,,,,,,,,,,,,,,,,,,,,,davidsanchez,001,2023_Mar_08_1605,stroop_task,3.2.3,59.626310004344084,
naranja,n,,0,2,2,14,,,,,,,,,,,,,,,25.6058557999786,None,['n'],0,[0.7525221998803318],25.555088700028136,None,,,,,,,,,,,,,,,,,,,,,,,,,,,,,davidsanchez,001,2023_Mar_08_1605,stroop_task,3.2.3,59.626310004344084,
verde,v,,0,3,3,19,,,,,,,,,,,,,,,26.371659300057217,None,['v'],0,[0.6420320998877287],26.332427199929953,None,,,,,,,,,,,,,,,,,,,,,,,,,,,,,davidsanchez,001,2023_Mar_08_1605,stroop_task,3.2.3,59.626310004344084,
azul,a,,0,4,4,3,,,,,,,,,,,,,,,27.038323200074956,None,['a'],0,[0.5762925001326948],27.00533750001341,None,,,,,,,,,,,,,,,,,,,,,,,,,,,,,davidsanchez,001,2023_Mar_08_1605,stroop_task,3.2.3,59.626310004344084,
verde,v,,0,5,5,26,,,,,,,,,,,,,,,27.654636099934578,None,['v'],0,[0.6817961998749524],27.604467400116846,None,,,,,,,,,,,,,,,,,,,,,,,,,,,,,davidsanchez,001,2023_Mar_08_1605,stroop_task,3.2.3,59.626310004344084,
naranja,n,,0,6,6,16,,,,,,,,,,,,,,,28.354524299968034,None,['n'],0,[0.552319600014016],28.316893399925902,None,,,,,,,,,,,,,,,,,,,,,,,,,,,,,davidsanchez,001,2023_Mar_08_1605,stroop_task,3.2.3,59.626310004344084,
verde,v,,0,7,7,27,,,,,,,,,,,,,,,28.93777890014462,None,['v'],0,[0.5341010000556707],28.89036489999853,None,,,,,,,,,,,,,,,,,,,,,,,,,,,,,davidsanchez,001,2023_Mar_08_1605,stroop_task,3.2.3,59.626310004344084,
azul,a,,0,8,8,4,,,,,,,,,,,,,,,29.487733100075275,None,['a'],0,[0.5660357000306249],29.454418200068176,None,,,,,,,,,,,,,,,,,,,,,,,,,,,,,davidsanchez,001,2023_Mar_08_1605,stroop_task,3.2.3,59.626310004344084,
azul,a,,0,9,9,1,,,,,,,,,,,,,,,30.070510300109163,None,['a'],0,[0.40266250004060566],30.03733510011807,None,,,,,,,,,,,,,,,,,,,,,,,,,,,,,davidsanchez,001,2023_Mar_08_1605,stroop_task,3.2.3,59.626310004344084,
azul,a,,0,10,10,7,,,,,,,,,,,,,,,30.50384939997457,None,['a'],0,[0.39992780005559325],30.47030770010315,None,,,,,,,,,,,,,,,,,,,,,,,,,,,,,davidsanchez,001,2023_Mar_08_1605,stroop_task,3.2.3,59.626310004344084,
naranja,n,,0,11,11,9,,,,,,,,,,,,,,,30.93682980001904,None,['n'],0,[0.9042268998455256],30.88665210013278,None,,,,,,,,,,,,,,,,,,,,,,,,,,,,,davidsanchez,001,2023_Mar_08_1605,stroop_task,3.2.3,59.626310004344084,
verde,v,,0,12,12,25,,,,,,,,,,,,,,,31.869901099940762,None,['v'],0,[0.5321268998086452],31.82018780009821,None,,,,,,,,,,,,,,,,,,,,,,,,,,,,,davidsanchez,001,2023_Mar_08_1605,stroop_task,3.2.3,59.626310004344084,
verde,v,,0,13,13,22,,,,,,,,,,,,,,,32.404830700019374,None,['v'],0,[0.38906290009617805],32.369454900035635,None,,,,,,,,,,,,,,,,,,,,,,,,,,,,,davidsanchez,001,2023_Mar_08_1605,stroop_task,3.2.3,59.626310004344084,
naranja,n,,0,14,14,10,,,,,,,,,,,,,,,32.836603600066155,None,['n'],0,[0.5541471999604255],32.7922098999843,None,,,,,,,,,,,,,,,,,,,,,,,,,,,,,davidsanchez,001,2023_Mar_08_1605,stroop_task,3.2.3,59.626310004344084,
naranja,n,,0,15,15,18,,,,,,,,,,,,,,,33.403340900084004,None,['n'],0,[0.47215259983204305],33.369994499953464,None,,,,,,,,,,,,,,,,,,,,,,,,,,,,,davidsanchez,001,2023_Mar_08_1605,stroop_task,3.2.3,59.626310004344084,
azul,a,,0,16,16,5,,,,,,,,,,,,,,,33.90287770004943,None,['a'],0,[0.6870653000660241],33.86926720011979,None,,,,,,,,,,,,,,,,,,,,,,,,,,,,,davidsanchez,001,2023_Mar_08_1605,stroop_task,3.2.3,59.626310004344084,
naranja,n,,0,17,17,15,,,,,,,,,,,,,,,34.636055500013754,None,['n'],0,[0.614550800062716],34.59647150011733,None,,,,,,,,,,,,,,,,,,,,,,,,,,,,,davidsanchez,001,2023_Mar_08_1605,stroop_task,3.2.3,59.626310004344084,
azul,a,,0,18,18,8,,,,,,,,,,,,,,,35.28531050006859,None,"['v', 'a']",0,"[0.4205221999436617, 0.8035931000486016]",35.24382840003818,None,,,,,,,,,,,,,,,,,,,,,,,,,,,,,davidsanchez,001,2023_Mar_08_1605,stroop_task,3.2.3,59.626310004344084,
azul,a,,0,19,19,2,,,,,,,,,,,,,,,36.102647399995476,None,['a'],0,[0.6694450001232326],36.068977900082245,None,,,,,,,,,,,,,,,,,,,,,,,,,,,,,davidsanchez,001,2023_Mar_08_1605,stroop_task,3.2.3,59.626310004344084,
naranja,n,,0,20,20,11,,,,,,,,,,,,,,,36.81826500012539,None,['n'],0,[0.5956644997932017],36.76851460011676,None,,,,,,,,,,,,,,,,,,,,,,,,,,,,,davidsanchez,001,2023_Mar_08_1605,stroop_task,3.2.3,59.626310004344084,
naranja,n,,0,21,21,13,,,,,,,,,,,,,,,37.418163400143385,None,['n'],0,[0.5050458000041544],37.384786600014195,None,,,,,,,,,,,,,,,,,,,,,,,,,,,,,davidsanchez,001,2023_Mar_08_1605,stroop_task,3.2.3,59.626310004344084,
azul,a,,0,22,22,6,,,,,,,,,,,,,,,37.96827409998514,None,['a'],0,[0.546208499930799],37.92299110000022,None,,,,,,,,,,,,,,,,,,,,,,,,,,,,,davidsanchez,001,2023_Mar_08_1605,stroop_task,3.2.3,59.626310004344084,
naranja,n,,0,23,23,17,,,,,,,,,,,,,,,38.55152800003998,None,['n'],0,[0.6224434000905603],38.50138080003671,None,,,,,,,,,,,,,,,,,,,,,,,,,,,,,davidsanchez,001,2023_Mar_08_1605,stroop_task,3.2.3,59.626310004344084,
verde,v,,0,24,24,24,,,,,,,,,,,,,,,39.200638100039214,None,['v'],0,[0.4907416000496596],39.15091560012661,None,,,,,,,,,,,,,,,,,,,,,,,,,,,,,davidsanchez,001,2023_Mar_08_1605,stroop_task,3.2.3,59.626310004344084,
naranja,n,,0,25,25,12,,,,,,,,,,,,,,,39.71736919996329,None,['n'],0,[0.5757965000811964],39.67499770014547,None,,,,,,,,,,,,,,,,,,,,,,,,,,,,,davidsanchez,001,2023_Mar_08_1605,stroop_task,3.2.3,59.626310004344084,
verde,v,,0,26,26,28,,,,,,,,,,,,,,,40.30087519995868,None,['v'],0,[0.6348447999916971],40.272489099996164,None,,,,,,,,,,,,,,,,,,,,,,,,,,,,,davidsanchez,001,2023_Mar_08_1605,stroop_task,3.2.3,59.626310004344084,
verde,v,,0,27,27,23,,,,,,,,,,,,,,,40.96759720006958,None,['v'],0,[0.4351615000050515],40.93382930010557,None,,,,,,,,,,,,,,,,,,,,,,,,,,,,,davidsanchez,001,2023_Mar_08_1605,stroop_task,3.2.3,59.626310004344084,
verde,v,,0,28,28,21,,,,,,,,,,,,,,,41.433863800019026,None,['v'],0,[0.3615443001035601],41.40045700012706,None,,,,,,,,,,,,,,,,,,,,,,,,,,,,,davidsanchez,001,2023_Mar_08_1605,stroop_task,3.2.3,59.626310004344084,
,,,,,,,,,,,,,,,,,,,,,,,,,,,,41.78384170006029,None,space,1.0386909001972526,46.76621289993636,None,,,,,,,,,,,,,,,,,,,,,,,davidsanchez,001,2023_Mar_08_1605,stroop_task,3.2.3,59.626310004344084,
,a,"[-1, -1, 1]",,,,,0,0,0,3,,,,,,,,,,,,,,,,,,,,,,,,47.898255800129846,None,"['n', 'a']",0,"[1.0516345999203622, 1.3976298000197858]",47.84939410001971,None,,,,,,,,,,,,,,,,davidsanchez,001,2023_Mar_08_1605,stroop_task,3.2.3,59.626310004344084,
,a,"[-1, -1, 1]",,,,,0,1,1,5,,,,,,,,,,,,,,,,,,,,,,,,49.297783199930564,None,['a'],0,[1.7958072999026626],49.26406870014034,None,,,,,,,,,,,,,,,,davidsanchez,001,2023_Mar_08_1605,stroop_task,3.2.3,59.626310004344084,
,v,"[-1, 0.04, -1]",,,,,0,2,2,21,,,,,,,,,,,,,,,,,,,,,,,,51.114076300058514,None,['v'],0,[1.0795187999028713],51.080413500079885,None,,,,,,,,,,,,,,,,davidsanchez,001,2023_Mar_08_1605,stroop_task,3.2.3,59.626310004344084,
,v,"[-1, 0.04, -1]",,,,,0,3,3,27,,,,,,,,,,,,,,,,,,,,,,,,52.21373159997165,None,"['n', 'v']",0,"[0.6715951999649405, 1.2456732999999076]",52.17958160000853,None,,,,,,,,,,,,,,,,davidsanchez,001,2023_Mar_08_1605,stroop_task,3.2.3,59.626310004344084,
,a,"[-1, -1, 1]",,,,,0,4,4,6,,,,,,,,,,,,,,,,,,,,,,,,53.496601399965584,None,['a'],0,[0.7172516998834908],53.44607580010779,None,,,,,,,,,,,,,,,,davidsanchez,001,2023_Mar_08_1605,stroop_task,3.2.3,59.626310004344084,
,a,"[-1, -1, 1]",,,,,0,5,5,4,,,,,,,,,,,,,,,,,,,,,,,,54.22962710005231,None,['a'],0,[0.62338209990412],54.17883879994042,None,,,,,,,,,,,,,,,,davidsanchez,001,2023_Mar_08_1605,stroop_task,3.2.3,59.626310004344084,
,a,"[-1, -1, 1]",,,,,0,6,6,7,,,,,,,,,,,,,,,,,,,,,,,,54.863257999997586,None,['a'],0,[0.5555382000748068],54.828774200053886,None,,,,,,,,,,,,,,,,davidsanchez,001,2023_Mar_08_1605,stroop_task,3.2.3,59.626310004344084,
,v,"[-1, 0.04, -1]",,,,,0,7,7,20,,,,,,,,,,,,,,,,,,,,,,,,55.44595850002952,None,['v'],0,[0.6426281000021845],55.41234629997052,None,,,,,,,,,,,,,,,,davidsanchez,001,2023_Mar_08_1605,stroop_task,3.2.3,59.626310004344084,
,a,"[-1, -1, 1]",,,,,0,8,8,8,,,,,,,,,,,,,,,,,,,,,,,,56.112454999936745,None,['a'],0,[0.6316920998506248],56.0785924999509,None,,,,,,,,,,,,,,,,davidsanchez,001,2023_Mar_08_1605,stroop_task,3.2.3,59.626310004344084,
,n,"[1, 0.1, -1]",,,,,0,9,9,16,,,,,,,,,,,,,,,,,,,,,,,,56.77878660010174,None,['n'],0,[0.476582899922505],56.72824260010384,None,,,,,,,,,,,,,,,,davidsanchez,001,2023_Mar_08_1605,stroop_task,3.2.3,59.626310004344084,
,v,"[-1, 0.04, -1]",,,,,0,10,10,25,,,,,,,,,,,,,,,,,,,,,,,,57.27891910006292,None,['v'],0,[0.6536959998775274],57.228246100014076,None,,,,,,,,,,,,,,,,davidsanchez,001,2023_Mar_08_1605,stroop_task,3.2.3,59.626310004344084,
,v,"[-1, 0.04, -1]",,,,,0,11,11,22,,,,,,,,,,,,,,,,,,,,,,,,57.94482500012964,None,['v'],0,[0.4462715999688953],57.911342500010505,None,,,,,,,,,,,,,,,,davidsanchez,001,2023_Mar_08_1605,stroop_task,3.2.3,59.626310004344084,
,a,"[-1, -1, 1]",,,,,0,12,12,2,,,,,,,,,,,,,,,,,,,,,,,,58.4117284999229,None,['a'],0,[0.47434429987333715],58.37775130011141,None,,,,,,,,,,,,,,,,davidsanchez,001,2023_Mar_08_1605,stroop_task,3.2.3,59.626310004344084,
,a,"[-1, -1, 1]",,,,,0,13,13,0,,,,,,,,,,,,,,,,,,,,,,,,58.92798550007865,None,['a'],0,[0.4568650999572128],58.87779169995338,None,,,,,,,,,,,,,,,,davidsanchez,001,2023_Mar_08_1605,stroop_task,3.2.3,59.626310004344084,
,n,"[1, 0.1, -1]",,,,,0,14,14,9,,,,,,,,,,,,,,,,,,,,,,,,59.394497100031,None,['n'],0,[0.6922742000315338],59.36086080013774,None,,,,,,,,,,,,,,,,davidsanchez,001,2023_Mar_08_1605,stroop_task,3.2.3,59.626310004344084,
,v,"[-1, 0.04, -1]",,,,,0,15,15,24,,,,,,,,,,,,,,,,,,,,,,,,60.12732860003598,None,['v'],0,[0.5604018000885844],60.07739989995025,None,,,,,,,,,,,,,,,,davidsanchez,001,2023_Mar_08_1605,stroop_task,3.2.3,59.626310004344084,
,v,"[-1, 0.04, -1]",,,,,0,16,16,26,,,,,,,,,,,,,,,,,,,,,,,,60.71081780013628,None,['v'],0,[0.5201069000177085],60.660510800080374,None,,,,,,,,,,,,,,,,davidsanchez,001,2023_Mar_08_1605,stroop_task,3.2.3,59.626310004344084,
,v,"[-1, 0.04, -1]",,,,,0,17,17,28,,,,,,,,,,,,,,,,,,,,,,,,61.26101280003786,None,['v'],0,[0.4500116999261081],61.210183900082484,None,,,,,,,,,,,,,,,,davidsanchez,001,2023_Mar_08_1605,stroop_task,3.2.3,59.626310004344084,
,n,"[1, 0.1, -1]",,,,,0,18,18,17,,,,,,,,,,,,,,,,,,,,,,,,61.7103506999556,None,['n'],0,[0.5419576999265701],61.676928400062025,None,,,,,,,,,,,,,,,,davidsanchez,001,2023_Mar_08_1605,stroop_task,3.2.3,59.626310004344084,
,n,"[1, 0.1, -1]",,,,,0,19,19,15,,,,,,,,,,,,,,,,,,,,,,,,62.29341550008394,None,['n'],0,[0.4795888001099229],62.2432610001415,None,,,,,,,,,,,,,,,,davidsanchez,001,2023_Mar_08_1605,stroop_task,3.2.3,59.626310004344084,
,n,"[1, 0.1, -1]",,,,,0,20,20,14,,,,,,,,,,,,,,,,,,,,,,,,62.793512100121006,None,['n'],0,[0.5358884001616389],62.742979699978605,None,,,,,,,,,,,,,,,,davidsanchez,001,2023_Mar_08_1605,stroop_task,3.2.3,59.626310004344084,
,n,"[1, 0.1, -1]",,,,,0,21,21,10,,,,,,,,,,,,,,,,,,,,,,,,63.35981780011207,None,['n'],0,[0.520623599877581],63.30948780011386,None,,,,,,,,,,,,,,,,davidsanchez,001,2023_Mar_08_1605,stroop_task,3.2.3,59.626310004344084,
,n,"[1, 0.1, -1]",,,,,0,22,22,18,,,,,,,,,,,,,,,,,,,,,,,,63.90940749994479,None,['n'],0,[0.5238122998271137],63.8591929001268,None,,,,,,,,,,,,,,,,davidsanchez,001,2023_Mar_08_1605,stroop_task,3.2.3,59.626310004344084,
,v,"[-1, 0.04, -1]",,,,,0,23,23,19,,,,,,,,,,,,,,,,,,,,,,,,64.44245110009797,None,['v'],0,[0.5893067999277264],64.40881439996883,None,,,,,,,,,,,,,,,,davidsanchez,001,2023_Mar_08_1605,stroop_task,3.2.3,59.626310004344084,
,n,"[1, 0.1, -1]",,,,,0,24,24,11,,,,,,,,,,,,,,,,,,,,,,,,65.0589952999726,None,['n'],0,[0.6039709998294711],65.02570390002802,None,,,,,,,,,,,,,,,,davidsanchez,001,2023_Mar_08_1605,stroop_task,3.2.3,59.626310004344084,
,v,"[-1, 0.04, -1]",,,,,0,25,25,23,,,,,,,,,,,,,,,,,,,,,,,,65.69291490013711,None,['v'],0,[0.671240100171417],65.65869519999251,None,,,,,,,,,,,,,,,,davidsanchez,001,2023_Mar_08_1605,stroop_task,3.2.3,59.626310004344084,
,a,"[-1, -1, 1]",,,,,0,26,26,1,,,,,,,,,,,,,,,,,,,,,,,,66.4087615001481,None,['a'],0,[0.49595290003344417],66.3582157001365,None,,,,,,,,,,,,,,,,davidsanchez,001,2023_Mar_08_1605,stroop_task,3.2.3,59.626310004344084,
,n,"[1, 0.1, -1]",,,,,0,27,27,13,,,,,,,,,,,,,,,,,,,,,,,,66.90887619997375,None,['n'],0,[0.6564923000987619],66.87510209996253,None,,,,,,,,,,,,,,,,davidsanchez,001,2023_Mar_08_1605,stroop_task,3.2.3,59.626310004344084,
,n,"[1, 0.1, -1]",,,,,0,28,28,12,,,,,,,,,,,,,,,,,,,,,,,,67.60870090010576,None,['n'],0,[0.4569987999275327],67.55801869998686,None,,,,,,,,,,,,,,,,davidsanchez,001,2023_Mar_08_1605,stroop_task,3.2.3,59.626310004344084,
,,,,,,,,,,,,,,,,,,,,,,,,,,,,,,,,,,,,,,,,,68.0421720999293,None,space,5.274404900148511,73.024084799923,None,,,,,,,,,,davidsanchez,001,2023_Mar_08_1605,stroop_task,3.2.3,59.626310004344084,
verde,n,"[1, 0.1, -1]",,,,,,,,,0,0,0,12,,,,,,,,,,,,,,,,,,,,,,,,,,,,,,,,,78.3714366001077,None,['n'],0,[1.3422256000339985],78.33091000001878,None,,,davidsanchez,001,2023_Mar_08_1605,stroop_task,3.2.3,59.626310004344084,
azul,v,"[-1, 0.04, -1]",,,,,,,,,0,1,1,22,,,,,,,,,,,,,,,,,,,,,,,,,,,,,,,,,79.7371576000005,None,['v'],0,[0.8896927998866886],79.708997100126,None,,,davidsanchez,001,2023_Mar_08_1605,stroop_task,3.2.3,59.626310004344084,
naranja,a,"[-1, -1, 1]",,,,,,,,,0,2,2,6,,,,,,,,,,,,,,,,,,,,,,,,,,,,,,,,,80.67026840010658,None,['a'],0,[1.0806313001085073],80.62125360011123,None,,,davidsanchez,001,2023_Mar_08_1605,stroop_task,3.2.3,59.626310004344084,
azul,n,"[1, 0.1, -1]",,,,,,,,,0,3,3,18,,,,,,,,,,,,,,,,,,,,,,,,,,,,,,,,,81.75313999992795,None,['n'],0,[0.7395770999137312],81.71987080015242,None,,,davidsanchez,001,2023_Mar_08_1605,stroop_task,3.2.3,59.626310004344084,
verde,n,"[1, 0.1, -1]",,,,,,,,,0,4,4,11,,,,,,,,,,,,,,,,,,,,,,,,,,,,,,,,,82.51952280011028,None,['n'],0,[0.837285100016743],82.48625740013085,None,,,davidsanchez,001,2023_Mar_08_1605,stroop_task,3.2.3,59.626310004344084,
azul,n,"[1, 0.1, -1]",,,,,,,,,0,5,5,17,,,,,,,,,,,,,,,,,,,,,,,,,,,,,,,,,83.3858056999743,None,['n'],0,[0.8515759999863803],83.3529960999731,None,,,davidsanchez,001,2023_Mar_08_1605,stroop_task,3.2.3,59.626310004344084,
azul,v,"[-1, 0.04, -1]",,,,,,,,,0,6,6,23,,,,,,,,,,,,,,,,,,,,,,,,,,,,,,,,,84.26957600004971,None,"['n', 'v']",0,"[0.7331761999521405, 1.2350977999158204]",84.21905279997736,None,,,davidsanchez,001,2023_Mar_08_1605,stroop_task,3.2.3,59.626310004344084,
azul,v,"[-1, 0.04, -1]",,,,,,,,,0,7,7,21,,,,,,,,,,,,,,,,,,,,,,,,,,,,,,,,,85.50180929992348,None,['v'],0,[0.9667150999885052],85.46893400000408,None,,,davidsanchez,001,2023_Mar_08_1605,stroop_task,3.2.3,59.626310004344084,
verde,a,"[-1, -1, 1]",,,,,,,,,0,8,8,3,,,,,,,,,,,,,,,,,,,,,,,,,,,,,,,,,86.50160380010493,None,['a'],0,[0.927938099950552],86.45498410006985,None,,,davidsanchez,001,2023_Mar_08_1605,stroop_task,3.2.3,59.626310004344084,
verde,n,"[1, 0.1, -1]",,,,,,,,,0,9,9,13,,,,,,,,,,,,,,,,,,,,,,,,,,,,,,,,,87.43469150015153,None,['n'],0,[1.2631276999600232],87.40093160001561,None,,,davidsanchez,001,2023_Mar_08_1605,stroop_task,3.2.3,59.626310004344084,
naranja,a,"[-1, -1, 1]",,,,,,,,,0,10,10,8,,,,,,,,,,,,,,,,,,,,,,,,,,,,,,,,,88.73433899995871,None,"['v', 'a']",0,"[1.3697245998773724, 1.7282950999215245]",88.69604449998587,None,,,davidsanchez,001,2023_Mar_08_1605,stroop_task,3.2.3,59.626310004344084,
azul,n,"[1, 0.1, -1]",,,,,,,,,0,11,11,15,,,,,,,,,,,,,,,,,,,,,,,,,,,,,,,,,90.48384519992396,None,['n'],0,[1.0932940000202507],90.44968349998817,None,,,davidsanchez,001,2023_Mar_08_1605,stroop_task,3.2.3,59.626310004344084,
verde,a,"[-1, -1, 1]",,,,,,,,,0,12,12,0,,,,,,,,,,,,,,,,,,,,,,,,,,,,,,,,,91.61644020001404,None,['a'],0,[0.5927321999333799],91.57453510002233,None,,,davidsanchez,001,2023_Mar_08_1605,stroop_task,3.2.3,59.626310004344084,
azul,v,"[-1, 0.04, -1]",,,,,,,,,0,13,13,20,,,,,,,,,,,,,,,,,,,,,,,,,,,,,,,,,92.24914090009406,None,['v'],0,[0.8917663001921028],92.2071932000108,None,,,davidsanchez,001,2023_Mar_08_1605,stroop_task,3.2.3,59.626310004344084,
naranja,v,"[-1, 0.04, -1]",,,,,,,,,0,14,14,26,,,,,,,,,,,,,,,,,,,,,,,,,,,,,,,,,93.16602510004304,None,['v'],0,[0.6610449000727385],93.11832450004295,None,,,davidsanchez,001,2023_Mar_08_1605,stroop_task,3.2.3,59.626310004344084,
azul,n,"[1, 0.1, -1]",,,,,,,,,0,15,15,16,,,,,,,,,,,,,,,,,,,,,,,,,,,,,,,,,93.83264150004834,None,['n'],0,[0.6245588997844607],93.79912390001118,None,,,davidsanchez,001,2023_Mar_08_1605,stroop_task,3.2.3,59.626310004344084,
naranja,v,"[-1, 0.04, -1]",,,,,,,,,0,16,16,24,,,,,,,,,,,,,,,,,,,,,,,,,,,,,,,,,94.49894760013558,None,"['n', 'v']",0,"[0.4748848001472652, 0.9444351999554783]",94.44832730013877,None,,,davidsanchez,001,2023_Mar_08_1605,stroop_task,3.2.3,59.626310004344084,
naranja,a,"[-1, -1, 1]",,,,,,,,,0,17,17,5,,,,,,,,,,,,,,,,,,,,,,,,,,,,,,,,,95.44877020013519,None,['a'],0,[0.5827812000643462],95.41532610007562,None,,,davidsanchez,001,2023_Mar_08_1605,stroop_task,3.2.3,59.626310004344084,
naranja,a,"[-1, -1, 1]",,,,,,,,,0,18,18,4,,,,,,,,,,,,,,,,,,,,,,,,,,,,,,,,,96.06493970006704,None,['a'],0,[0.6849644999019802],96.0149628999643,None,,,davidsanchez,001,2023_Mar_08_1605,stroop_task,3.2.3,59.626310004344084,
naranja,a,"[-1, -1, 1]",,,,,,,,,0,19,19,7,,,,,,,,,,,,,,,,,,,,,,,,,,,,,,,,,96.76474769995548,None,['a'],0,[1.217780000064522],96.73093930003233,None,,,davidsanchez,001,2023_Mar_08_1605,stroop_task,3.2.3,59.626310004344084,
verde,n,"[1, 0.1, -1]",,,,,,,,,0,20,20,9,,,,,,,,,,,,,,,,,,,,,,,,,,,,,,,,,97.99771460006014,None,['n'],0,[1.2262458000332117],97.96459789993241,None,,,davidsanchez,001,2023_Mar_08_1605,stroop_task,3.2.3,59.626310004344084,
verde,a,"[-1, -1, 1]",,,,,,,,,0,21,21,1,,,,,,,,,,,,,,,,,,,,,,,,,,,,,,,,,99.24675379996188,None,['a'],0,[0.9220592000056058],99.2133786000777,None,,,davidsanchez,001,2023_Mar_08_1605,stroop_task,3.2.3,59.626310004344084,
azul,n,"[1, 0.1, -1]",,,,,,,,,0,22,22,14,,,,,,,,,,,,,,,,,,,,,,,,,,,,,,,,,100.21378140011802,None,['n'],0,[0.8542579999193549],100.16980920010246,None,,,davidsanchez,001,2023_Mar_08_1605,stroop_task,3.2.3,59.626310004344084,
azul,v,"[-1, 0.04, -1]",,,,,,,,,0,23,23,19,,,,,,,,,,,,,,,,,,,,,,,,,,,,,,,,,101.07984829996713,None,['v'],0,[1.009913600049913],101.04668670007959,None,,,davidsanchez,001,2023_Mar_08_1605,stroop_task,3.2.3,59.626310004344084,
verde,a,"[-1, -1, 1]",,,,,,,,,0,24,24,2,,,,,,,,,,,,,,,,,,,,,,,,,,,,,,,,,102.12944069993682,None,['a'],0,[0.9490322999190539],102.07928099995479,None,,,davidsanchez,001,2023_Mar_08_1605,stroop_task,3.2.3,59.626310004344084,
verde,n,"[1, 0.1, -1]",,,,,,,,,0,25,25,10,,,,,,,,,,,,,,,,,,,,,,,,,,,,,,,,,103.07884100009687,None,['n'],0,[1.7882975998800248],103.04605789994821,None,,,davidsanchez,001,2023_Mar_08_1605,stroop_task,3.2.3,59.626310004344084,
naranja,v,"[-1, 0.04, -1]",,,,,,,,,0,26,26,27,,,,,,,,,,,,,,,,,,,,,,,,,,,,,,,,,104.91226020012982,None,['v'],0,[1.0878002000972629],104.87492970004678,None,,,davidsanchez,001,2023_Mar_08_1605,stroop_task,3.2.3,59.626310004344084,
naranja,v,"[-1, 0.04, -1]",,,,,,,,,0,27,27,28,,,,,,,,,,,,,,,,,,,,,,,,,,,,,,,,,106.01222579996102,None,['v'],0,[0.6911828999873251],105.978379300097,None,,,davidsanchez,001,2023_Mar_08_1605,stroop_task,3.2.3,59.626310004344084,
naranja,v,"[-1, 0.04, -1]",,,,,,,,,0,28,28,25,,,,,,,,,,,,,,,,,,,,,,,,,,,,,,,,,106.72789490013383,None,['v'],0,[1.071674699895084],106.69418089999817,None,,,davidsanchez,001,2023_Mar_08_1605,stroop_task,3.2.3,59.626310004344084,
,,,,,,,,,,,,,,,,,,,,,,,,,,,,,,,,,,,,,,,,,,,,,,,,,,,,,,107.79406590014696,None,,,,,,,
