texto,answer,color,trials.thisRepN,trials.thisTrialN,trials.thisN,trials.thisIndex,trials_2.thisRepN,trials_2.thisTrialN,trials_2.thisN,trials_2.thisIndex,trials_3.thisRepN,trials_3.thisTrialN,trials_3.thisN,trials_3.thisIndex,Instrucciones_texto.started,Instrucciones_texto.stopped,key_resp.keys,key_resp.rt,key_resp.started,key_resp.stopped,colores1.started,colores1.stopped,respuesta.keys,respuesta.corr,respuesta.rt,respuesta.started,respuesta.stopped,text_intructionses2.started,text_intructionses2.stopped,key_resp_2.keys,key_resp_2.rt,key_resp_2.started,key_resp_2.stopped,rectangulo.started,rectangulo.stopped,respuesta_rect.keys,respuesta_rect.corr,respuesta_rect.rt,respuesta_rect.started,respuesta_rect.stopped,text.started,text.stopped,key_resp_3.keys,key_resp_3.rt,key_resp_3.started,key_resp_3.stopped,colores2.started,colores2.stopped,respuesta_mix.keys,respuesta_mix.corr,respuesta_mix.rt,respuesta_mix.started,respuesta_mix.stopped,despedida.started,despedida.stopped,participant,session,date,expName,psychopyVersion,frameRate,
,,,,,,,,,,,,,,,8.445721399970353,None,space,1.0464214000385255,14.407717199996114,None,,,,,,,,,,,,,,,,,,,,,,,,,,,,,,,,,,,,ddd,001,2023_Mar_08_1742,stroop_task,3.2.3,59.80324726642044,
lila,l,,0,0,0,28,,,,,,,,,,,,,,,15.574265299830586,None,['l'],0,[0.7649027998559177],15.525091199902818,None,,,,,,,,,,,,,,,,,,,,,,,,,,,,,ddd,001,2023_Mar_08_1742,stroop_task,3.2.3,59.80324726642044,
naranja,n,,0,1,1,9,,,,,,,,,,,,,,,16.373603399842978,None,['n'],0,[1.1431913000997156],16.32488700002432,None,,,,,,,,,,,,,,,,,,,,,,,,,,,,,ddd,001,2023_Mar_08_1742,stroop_task,3.2.3,59.80324726642044,
azul,a,,0,2,2,5,,,,,,,,,,,,,,,17.53975859982893,None,['a'],0,[0.536809700075537],17.49020709982142,None,,,,,,,,,,,,,,,,,,,,,,,,,,,,,ddd,001,2023_Mar_08_1742,stroop_task,3.2.3,59.80324726642044,
naranja,n,,0,3,3,16,,,,,,,,,,,,,,,18.08968580001965,None,['n'],0,[0.46113880001939833],18.043425999814644,None,,,,,,,,,,,,,,,,,,,,,,,,,,,,,ddd,001,2023_Mar_08_1742,stroop_task,3.2.3,59.80324726642044,
verde,v,,0,4,4,19,,,,,,,,,,,,,,,18.572911499999464,None,['v'],0,[0.776808800175786],18.523064199835062,None,,,,,,,,,,,,,,,,,,,,,,,,,,,,,ddd,001,2023_Mar_08_1742,stroop_task,3.2.3,59.80324726642044,
naranja,n,,0,5,5,12,,,,,,,,,,,,,,,19.373040499864146,None,['n'],0,[0.5561436000280082],19.32238209992647,None,,,,,,,,,,,,,,,,,,,,,,,,,,,,,ddd,001,2023_Mar_08_1742,stroop_task,3.2.3,59.80324726642044,
azul,a,,0,6,6,4,,,,,,,,,,,,,,,19.93891659984365,None,['a'],0,[0.8070809000637382],19.906108499970287,None,,,,,,,,,,,,,,,,,,,,,,,,,,,,,ddd,001,2023_Mar_08_1742,stroop_task,3.2.3,59.80324726642044,
azul,a,,0,7,7,2,,,,,,,,,,,,,,,20.77273209998384,None,"['l', 'a']",0,"[0.6560573000460863, 1.1560728000476956]",20.739061699947342,None,,,,,,,,,,,,,,,,,,,,,,,,,,,,,ddd,001,2023_Mar_08_1742,stroop_task,3.2.3,59.80324726642044,
naranja,n,,0,8,8,15,,,,,,,,,,,,,,,21.971719899913296,None,['n'],0,[0.8614264999050647],21.922035099938512,None,,,,,,,,,,,,,,,,,,,,,,,,,,,,,ddd,001,2023_Mar_08_1742,stroop_task,3.2.3,59.80324726642044,
lila,l,,0,9,9,26,,,,,,,,,,,,,,,22.854925899999216,None,['l'],0,[0.6598193000536412],22.809801399940625,None,,,,,,,,,,,,,,,,,,,,,,,,,,,,,ddd,001,2023_Mar_08_1742,stroop_task,3.2.3,59.80324726642044,
verde,v,,0,10,10,17,,,,,,,,,,,,,,,23.521512399893254,None,['v'],0,[0.6255732998251915],23.48756489995867,None,,,,,,,,,,,,,,,,,,,,,,,,,,,,,ddd,001,2023_Mar_08_1742,stroop_task,3.2.3,59.80324726642044,
verde,v,,0,11,11,24,,,,,,,,,,,,,,,24.171239299932495,None,['v'],0,[0.4070792000275105],24.137732999864966,None,,,,,,,,,,,,,,,,,,,,,,,,,,,,,ddd,001,2023_Mar_08_1742,stroop_task,3.2.3,59.80324726642044,
naranja,n,,0,12,12,11,,,,,,,,,,,,,,,24.62126799998805,None,['n'],0,[0.46279409993439913],24.570739299990237,None,,,,,,,,,,,,,,,,,,,,,,,,,,,,,ddd,001,2023_Mar_08_1742,stroop_task,3.2.3,59.80324726642044,
verde,v,,0,13,13,23,,,,,,,,,,,,,,,25.104384699836373,None,['v'],0,[0.6133177001029253],25.057243299903348,None,,,,,,,,,,,,,,,,,,,,,,,,,,,,,ddd,001,2023_Mar_08_1742,stroop_task,3.2.3,59.80324726642044,
verde,v,,0,14,14,20,,,,,,,,,,,,,,,25.720143500017002,None,['v'],0,[0.4074607999064028],25.68722079996951,None,,,,,,,,,,,,,,,,,,,,,,,,,,,,,ddd,001,2023_Mar_08_1742,stroop_task,3.2.3,59.80324726642044,
lila,l,,0,15,15,27,,,,,,,,,,,,,,,26.170513399876654,None,['l'],0,[0.5045737999025732],26.12334519997239,None,,,,,,,,,,,,,,,,,,,,,,,,,,,,,ddd,001,2023_Mar_08_1742,stroop_task,3.2.3,59.80324726642044,
naranja,n,,0,16,16,10,,,,,,,,,,,,,,,26.703922000015154,None,['n'],0,[0.6196582999546081],26.664971299935132,None,,,,,,,,,,,,,,,,,,,,,,,,,,,,,ddd,001,2023_Mar_08_1742,stroop_task,3.2.3,59.80324726642044,
verde,v,,0,17,17,18,,,,,,,,,,,,,,,27.353383000008762,None,['v'],0,[0.5067320000380278],27.313519599847496,None,,,,,,,,,,,,,,,,,,,,,,,,,,,,,ddd,001,2023_Mar_08_1742,stroop_task,3.2.3,59.80324726642044,
verde,v,,0,18,18,25,,,,,,,,,,,,,,,27.86980260000564,None,['v'],0,[0.3668796999845654],27.836222799960524,None,,,,,,,,,,,,,,,,,,,,,,,,,,,,,ddd,001,2023_Mar_08_1742,stroop_task,3.2.3,59.80324726642044,
naranja,n,,0,19,19,14,,,,,,,,,,,,,,,28.26997459982522,None,['n'],0,[0.45860860007815063],28.229987799888477,None,,,,,,,,,,,,,,,,,,,,,,,,,,,,,ddd,001,2023_Mar_08_1742,stroop_task,3.2.3,59.80324726642044,
lila,l,,0,20,20,29,,,,,,,,,,,,,,,28.769777999958023,None,['l'],0,[0.4214227998163551],28.722908800002187,None,,,,,,,,,,,,,,,,,,,,,,,,,,,,,ddd,001,2023_Mar_08_1742,stroop_task,3.2.3,59.80324726642044,
azul,a,,0,21,21,0,,,,,,,,,,,,,,,29.219564700033516,None,['a'],0,[0.55102329980582],29.16936960001476,None,,,,,,,,,,,,,,,,,,,,,,,,,,,,,ddd,001,2023_Mar_08_1742,stroop_task,3.2.3,59.80324726642044,
naranja,n,,0,22,22,13,,,,,,,,,,,,,,,29.802619299851358,None,['n'],0,[0.5563711000140756],29.75262529985048,None,,,,,,,,,,,,,,,,,,,,,,,,,,,,,ddd,001,2023_Mar_08_1742,stroop_task,3.2.3,59.80324726642044,
verde,v,,0,23,23,21,,,,,,,,,,,,,,,30.385800799820572,None,['v'],0,[0.5287751997821033],30.348043999867514,None,,,,,,,,,,,,,,,,,,,,,,,,,,,,,ddd,001,2023_Mar_08_1742,stroop_task,3.2.3,59.80324726642044,
azul,a,,0,24,24,1,,,,,,,,,,,,,,,30.952323999954388,None,['a'],0,[0.690924699883908],30.90436669997871,None,,,,,,,,,,,,,,,,,,,,,,,,,,,,,ddd,001,2023_Mar_08_1742,stroop_task,3.2.3,59.80324726642044,
azul,a,,0,25,25,6,,,,,,,,,,,,,,,31.65236789989285,None,"['v', 'a']",0,"[0.4734320999123156, 0.5095478999428451]",31.6190251999069,None,,,,,,,,,,,,,,,,,,,,,,,,,,,,,ddd,001,2023_Mar_08_1742,stroop_task,3.2.3,59.80324726642044,
azul,a,,0,26,26,7,,,,,,,,,,,,,,,32.18506109993905,None,['a'],0,[0.41423130012117326],32.151880899909884,None,,,,,,,,,,,,,,,,,,,,,,,,,,,,,ddd,001,2023_Mar_08_1742,stroop_task,3.2.3,59.80324726642044,
naranja,n,,0,27,27,8,,,,,,,,,,,,,,,32.63475149986334,None,['n'],0,[0.6865862000267953],32.58694299985655,None,,,,,,,,,,,,,,,,,,,,,,,,,,,,,ddd,001,2023_Mar_08_1742,stroop_task,3.2.3,59.80324726642044,
azul,a,,0,28,28,3,,,,,,,,,,,,,,,33.35135759995319,None,"['v', 'a']",0,"[0.47793519985862076, 0.593427199870348]",33.30989219993353,None,,,,,,,,,,,,,,,,,,,,,,,,,,,,,ddd,001,2023_Mar_08_1742,stroop_task,3.2.3,59.80324726642044,
verde,v,,0,29,29,22,,,,,,,,,,,,,,,33.96805369993672,None,['v'],0,[0.8292384000960737],33.920795999933034,None,,,,,,,,,,,,,,,,,,,,,,,,,,,,,ddd,001,2023_Mar_08_1742,stroop_task,3.2.3,59.80324726642044,
,,,,,,,,,,,,,,,,,,,,,,,,,,,,34.767680299934,None,space,2.036260499851778,39.74948709993623,None,,,,,,,,,,,,,,,,,,,,,,,ddd,001,2023_Mar_08_1742,stroop_task,3.2.3,59.80324726642044,
,n,"[1, 0.1, -1]",,,,,0,0,0,8,,,,,,,,,,,,,,,,,,,,,,,,41.86515789991245,None,['n'],0,[0.8990984000265598],41.82330699986778,None,,,,,,,,,,,,,,,,ddd,001,2023_Mar_08_1742,stroop_task,3.2.3,59.80324726642044,
,n,"[1, 0.1, -1]",,,,,0,1,1,10,,,,,,,,,,,,,,,,,,,,,,,,42.79848999995738,None,['n'],0,[0.4406133000738919],42.74836079985835,None,,,,,,,,,,,,,,,,ddd,001,2023_Mar_08_1742,stroop_task,3.2.3,59.80324726642044,
,n,"[1, 0.1, -1]",,,,,0,2,2,15,,,,,,,,,,,,,,,,,,,,,,,,43.265055399853736,None,['n'],0,[0.4325914999935776],43.214779699919745,None,,,,,,,,,,,,,,,,ddd,001,2023_Mar_08_1742,stroop_task,3.2.3,59.80324726642044,
,a,"[-1, -1, 1]",,,,,0,3,3,2,,,,,,,,,,,,,,,,,,,,,,,,43.69799829996191,None,['a'],0,[0.49374289996922016],43.66417169990018,None,,,,,,,,,,,,,,,,ddd,001,2023_Mar_08_1742,stroop_task,3.2.3,59.80324726642044,
,n,"[1, 0.1, -1]",,,,,0,4,4,13,,,,,,,,,,,,,,,,,,,,,,,,44.21461010002531,None,['n'],0,[0.42403120012022555],44.18132289987989,None,,,,,,,,,,,,,,,,ddd,001,2023_Mar_08_1742,stroop_task,3.2.3,59.80324726642044,
,v,"[-1, 0.04, -1]",,,,,0,5,5,21,,,,,,,,,,,,,,,,,,,,,,,,44.6818387999665,None,['v'],0,[0.5199975001160055],44.63092639995739,None,,,,,,,,,,,,,,,,ddd,001,2023_Mar_08_1742,stroop_task,3.2.3,59.80324726642044,
,a,"[-1, -1, 1]",,,,,0,6,6,1,,,,,,,,,,,,,,,,,,,,,,,,45.23105089995079,None,['a'],0,[0.6555331000126898],45.1810065000318,None,,,,,,,,,,,,,,,,ddd,001,2023_Mar_08_1742,stroop_task,3.2.3,59.80324726642044,
,v,"[-1, 0.04, -1]",,,,,0,7,7,17,,,,,,,,,,,,,,,,,,,,,,,,45.897833599941805,None,"['n', 'v']",0,"[0.6149917999282479, 0.9440037999302149]",45.864104399923235,None,,,,,,,,,,,,,,,,ddd,001,2023_Mar_08_1742,stroop_task,3.2.3,59.80324726642044,
,v,"[-1, 0.04, -1]",,,,,0,8,8,19,,,,,,,,,,,,,,,,,,,,,,,,46.88075499981642,None,['v'],0,[0.44243789999745786],46.8301072998438,None,,,,,,,,,,,,,,,,ddd,001,2023_Mar_08_1742,stroop_task,3.2.3,59.80324726642044,
,l,"[0.004, -1, 0.004]",,,,,0,9,9,26,,,,,,,,,,,,,,,,,,,,,,,,47.34717099997215,None,['l'],0,[0.5230869001243263],47.29785019997507,None,,,,,,,,,,,,,,,,ddd,001,2023_Mar_08_1742,stroop_task,3.2.3,59.80324726642044,
,n,"[1, 0.1, -1]",,,,,0,10,10,9,,,,,,,,,,,,,,,,,,,,,,,,47.89687709999271,None,['n'],0,[0.657112899934873],47.848299499833956,None,,,,,,,,,,,,,,,,ddd,001,2023_Mar_08_1742,stroop_task,3.2.3,59.80324726642044,
,n,"[1, 0.1, -1]",,,,,0,11,11,16,,,,,,,,,,,,,,,,,,,,,,,,48.58009519986808,None,['n'],0,[0.6873263998422772],48.530675899935886,None,,,,,,,,,,,,,,,,ddd,001,2023_Mar_08_1742,stroop_task,3.2.3,59.80324726642044,
,a,"[-1, -1, 1]",,,,,0,12,12,7,,,,,,,,,,,,,,,,,,,,,,,,49.280002899933606,None,['a'],0,[0.6123597000259906],49.24553249985911,None,,,,,,,,,,,,,,,,ddd,001,2023_Mar_08_1742,stroop_task,3.2.3,59.80324726642044,
,a,"[-1, -1, 1]",,,,,0,13,13,3,,,,,,,,,,,,,,,,,,,,,,,,49.91335259983316,None,['a'],0,[0.47087469999678433],49.879097800003365,None,,,,,,,,,,,,,,,,ddd,001,2023_Mar_08_1742,stroop_task,3.2.3,59.80324726642044,
,l,"[0.004, -1, 0.004]",,,,,0,14,14,29,,,,,,,,,,,,,,,,,,,,,,,,50.428963999962434,None,['l'],0,[0.7146801999770105],50.37886910000816,None,,,,,,,,,,,,,,,,ddd,001,2023_Mar_08_1742,stroop_task,3.2.3,59.80324726642044,
,v,"[-1, 0.04, -1]",,,,,0,15,15,18,,,,,,,,,,,,,,,,,,,,,,,,51.14569589984603,None,['v'],0,[1.2491121001075953],51.11193919996731,None,,,,,,,,,,,,,,,,ddd,001,2023_Mar_08_1742,stroop_task,3.2.3,59.80324726642044,
,n,"[1, 0.1, -1]",,,,,0,16,16,12,,,,,,,,,,,,,,,,,,,,,,,,52.41205699997954,None,['n'],0,[0.450347000034526],52.37849389994517,None,,,,,,,,,,,,,,,,ddd,001,2023_Mar_08_1742,stroop_task,3.2.3,59.80324726642044,
,l,"[0.004, -1, 0.004]",,,,,0,17,17,28,,,,,,,,,,,,,,,,,,,,,,,,52.87852799985558,None,['l'],0,[0.6902756998315454],52.84493299992755,None,,,,,,,,,,,,,,,,ddd,001,2023_Mar_08_1742,stroop_task,3.2.3,59.80324726642044,
,n,"[1, 0.1, -1]",,,,,0,18,18,14,,,,,,,,,,,,,,,,,,,,,,,,53.59520159987733,None,['n'],0,[0.6937517998740077],53.565224200021476,None,,,,,,,,,,,,,,,,ddd,001,2023_Mar_08_1742,stroop_task,3.2.3,59.80324726642044,
,v,"[-1, 0.04, -1]",,,,,0,19,19,20,,,,,,,,,,,,,,,,,,,,,,,,54.311329499818385,None,['v'],0,[0.48607690003700554],54.27731899986975,None,,,,,,,,,,,,,,,,ddd,001,2023_Mar_08_1742,stroop_task,3.2.3,59.80324726642044,
,a,"[-1, -1, 1]",,,,,0,20,20,0,,,,,,,,,,,,,,,,,,,,,,,,54.84428730001673,None,['a'],0,[0.5409967999439687],54.7940568998456,None,,,,,,,,,,,,,,,,ddd,001,2023_Mar_08_1742,stroop_task,3.2.3,59.80324726642044,
,v,"[-1, 0.04, -1]",,,,,0,21,21,24,,,,,,,,,,,,,,,,,,,,,,,,55.411171399988234,None,"['n', 'v']",0,"[0.5964938001707196, 1.0396378999575973]",55.3605368998833,None,,,,,,,,,,,,,,,,ddd,001,2023_Mar_08_1742,stroop_task,3.2.3,59.80324726642044,
,l,"[0.004, -1, 0.004]",,,,,0,22,22,27,,,,,,,,,,,,,,,,,,,,,,,,56.47739150002599,None,['l'],0,[0.632689299993217],56.42682569986209,None,,,,,,,,,,,,,,,,ddd,001,2023_Mar_08_1742,stroop_task,3.2.3,59.80324726642044,
,a,"[-1, -1, 1]",,,,,0,23,23,6,,,,,,,,,,,,,,,,,,,,,,,,57.110368199879304,None,['a'],0,[0.6619783998467028],57.07687360001728,None,,,,,,,,,,,,,,,,ddd,001,2023_Mar_08_1742,stroop_task,3.2.3,59.80324726642044,
,n,"[1, 0.1, -1]",,,,,0,24,24,11,,,,,,,,,,,,,,,,,,,,,,,,57.79336929996498,None,['n'],0,[0.4376407000236213],57.75951619981788,None,,,,,,,,,,,,,,,,ddd,001,2023_Mar_08_1742,stroop_task,3.2.3,59.80324726642044,
,a,"[-1, -1, 1]",,,,,0,25,25,4,,,,,,,,,,,,,,,,,,,,,,,,58.25993569986895,None,['a'],0,[0.6979334999341518],58.22680709999986,None,,,,,,,,,,,,,,,,ddd,001,2023_Mar_08_1742,stroop_task,3.2.3,59.80324726642044,
,v,"[-1, 0.04, -1]",,,,,0,26,26,25,,,,,,,,,,,,,,,,,,,,,,,,58.976040499983355,None,['v'],0,[0.8022032999433577],58.942773499991745,None,,,,,,,,,,,,,,,,ddd,001,2023_Mar_08_1742,stroop_task,3.2.3,59.80324726642044,
,v,"[-1, 0.04, -1]",,,,,0,27,27,23,,,,,,,,,,,,,,,,,,,,,,,,59.809576199855655,None,['v'],0,[0.5589637998491526],59.775593699887395,None,,,,,,,,,,,,,,,,ddd,001,2023_Mar_08_1742,stroop_task,3.2.3,59.80324726642044,
,v,"[-1, 0.04, -1]",,,,,0,28,28,22,,,,,,,,,,,,,,,,,,,,,,,,60.40943969995715,None,['v'],0,[0.4568596000317484],60.361083399970084,None,,,,,,,,,,,,,,,,ddd,001,2023_Mar_08_1742,stroop_task,3.2.3,59.80324726642044,
,a,"[-1, -1, 1]",,,,,0,29,29,5,,,,,,,,,,,,,,,,,,,,,,,,60.87606979999691,None,['a'],0,[0.5684936000034213],60.84230130002834,None,,,,,,,,,,,,,,,,ddd,001,2023_Mar_08_1742,stroop_task,3.2.3,59.80324726642044,
,,,,,,,,,,,,,,,,,,,,,,,,,,,,,,,,,,,,,,,,,61.44199809990823,None,space,0.9915385998319834,66.42411379981786,None,,,,,,,,,,ddd,001,2023_Mar_08_1742,stroop_task,3.2.3,59.80324726642044,
azul,n,"[1, 0.1, -1]",,,,,,,,,0,0,0,8,,,,,,,,,,,,,,,,,,,,,,,,,,,,,,,,,67.50629689986818,None,['n'],0,[1.209676899947226],67.46337749995291,None,,,ddd,001,2023_Mar_08_1742,stroop_task,3.2.3,59.80324726642044,
azul,v,"[-1, 0.04, -1]",,,,,,,,,0,1,1,18,,,,,,,,,,,,,,,,,,,,,,,,,,,,,,,,,68.73929719999433,None,['v'],0,[0.6101351999677718],68.70544859999791,None,,,ddd,001,2023_Mar_08_1742,stroop_task,3.2.3,59.80324726642044,
azul,l,"[0.004, -1, 0.004]",,,,,,,,,0,2,2,27,,,,,,,,,,,,,,,,,,,,,,,,,,,,,,,,,69.37288389983587,None,['l'],0,[0.6227933999616653],69.33920839987695,None,,,ddd,001,2023_Mar_08_1742,stroop_task,3.2.3,59.80324726642044,
naranja,v,"[-1, 0.04, -1]",,,,,,,,,0,3,3,22,,,,,,,,,,,,,,,,,,,,,,,,,,,,,,,,,70.03908769995905,None,['v'],0,[0.9745982000604272],69.98866259981878,None,,,ddd,001,2023_Mar_08_1742,stroop_task,3.2.3,59.80324726642044,
naranja,a,"[-1, -1, 1]",,,,,,,,,0,4,4,4,,,,,,,,,,,,,,,,,,,,,,,,,,,,,,,,,71.02213129983284,None,['a'],0,[0.5710289000999182],70.98827359988354,None,,,ddd,001,2023_Mar_08_1742,stroop_task,3.2.3,59.80324726642044,
verde,l,"[0.004, -1, 0.004]",,,,,,,,,0,5,5,29,,,,,,,,,,,,,,,,,,,,,,,,,,,,,,,,,71.63844629982486,None,['l'],0,[0.6892901000101119],71.59189929999411,None,,,ddd,001,2023_Mar_08_1742,stroop_task,3.2.3,59.80324726642044,
lila,v,"[-1, 0.04, -1]",,,,,,,,,0,6,6,25,,,,,,,,,,,,,,,,,,,,,,,,,,,,,,,,,72.3378147999756,None,['v'],0,[0.6843197999987751],72.30495409993455,None,,,ddd,001,2023_Mar_08_1742,stroop_task,3.2.3,59.80324726642044,
azul,n,"[1, 0.1, -1]",,,,,,,,,0,7,7,10,,,,,,,,,,,,,,,,,,,,,,,,,,,,,,,,,73.07077659992501,None,['n'],0,[0.9222689000889659],73.02058929996565,None,,,ddd,001,2023_Mar_08_1742,stroop_task,3.2.3,59.80324726642044,
lila,n,"[1, 0.1, -1]",,,,,,,,,0,8,8,15,,,,,,,,,,,,,,,,,,,,,,,,,,,,,,,,,74.02099239989184,None,['n'],0,[0.9566461998037994],73.97667829995044,None,,,ddd,001,2023_Mar_08_1742,stroop_task,3.2.3,59.80324726642044,
lila,a,"[-1, -1, 1]",,,,,,,,,0,9,9,7,,,,,,,,,,,,,,,,,,,,,,,,,,,,,,,,,74.98757869983092,None,['a'],0,[0.6936415999662131],74.95416459999979,None,,,ddd,001,2023_Mar_08_1742,stroop_task,3.2.3,59.80324726642044,
lila,a,"[-1, -1, 1]",,,,,,,,,0,10,10,5,,,,,,,,,,,,,,,,,,,,,,,,,,,,,,,,,75.70322609995492,None,['a'],0,[1.0013826999347657],75.66980020003393,None,,,ddd,001,2023_Mar_08_1742,stroop_task,3.2.3,59.80324726642044,
azul,l,"[0.004, -1, 0.004]",,,,,,,,,0,11,11,26,,,,,,,,,,,,,,,,,,,,,,,,,,,,,,,,,76.73688249988481,None,['l'],0,[1.8001816999167204],76.68881309987046,None,,,ddd,001,2023_Mar_08_1742,stroop_task,3.2.3,59.80324726642044,
lila,a,"[-1, -1, 1]",,,,,,,,,0,12,12,6,,,,,,,,,,,,,,,,,,,,,,,,,,,,,,,,,78.56879489985295,None,['a'],0,[0.561679899925366],78.51879939995706,None,,,ddd,001,2023_Mar_08_1742,stroop_task,3.2.3,59.80324726642044,
azul,l,"[0.004, -1, 0.004]",,,,,,,,,0,13,13,28,,,,,,,,,,,,,,,,,,,,,,,,,,,,,,,,,79.15261929994449,None,['l'],0,[0.783132900018245],79.11063999985345,None,,,ddd,001,2023_Mar_08_1742,stroop_task,3.2.3,59.80324726642044,
lila,v,"[-1, 0.04, -1]",,,,,,,,,0,14,14,23,,,,,,,,,,,,,,,,,,,,,,,,,,,,,,,,,79.96901929983869,None,['v'],0,[0.8827305999584496],79.92369339987636,None,,,ddd,001,2023_Mar_08_1742,stroop_task,3.2.3,59.80324726642044,
naranja,v,"[-1, 0.04, -1]",,,,,,,,,0,15,15,21,,,,,,,,,,,,,,,,,,,,,,,,,,,,,,,,,80.88540809997357,None,['v'],0,[1.0210235000122339],80.83493370003998,None,,,ddd,001,2023_Mar_08_1742,stroop_task,3.2.3,59.80324726642044,
verde,n,"[1, 0.1, -1]",,,,,,,,,0,16,16,11,,,,,,,,,,,,,,,,,,,,,,,,,,,,,,,,,81.93503189994954,None,['n'],0,[0.9842733999248594],81.89451599982567,None,,,ddd,001,2023_Mar_08_1742,stroop_task,3.2.3,59.80324726642044,
naranja,v,"[-1, 0.04, -1]",,,,,,,,,0,17,17,20,,,,,,,,,,,,,,,,,,,,,,,,,,,,,,,,,82.95096779987216,None,['v'],0,[1.2430525999516249],82.91268890001811,None,,,ddd,001,2023_Mar_08_1742,stroop_task,3.2.3,59.80324726642044,
azul,v,"[-1, 0.04, -1]",,,,,,,,,0,18,18,17,,,,,,,,,,,,,,,,,,,,,,,,,,,,,,,,,84.23408019985072,None,"['a', 'v']",0,"[0.823504300089553, 1.8878033000510186]",84.19541429984383,None,,,ddd,001,2023_Mar_08_1742,stroop_task,3.2.3,59.80324726642044,
lila,n,"[1, 0.1, -1]",,,,,,,,,0,19,19,16,,,,,,,,,,,,,,,,,,,,,,,,,,,,,,,,,86.1336302999407,None,"['l', 'l', 'n']",0,"[0.9976691000629216, 1.4849260000046343, 2.143313300097361]",86.09989869990386,None,,,ddd,001,2023_Mar_08_1742,stroop_task,3.2.3,59.80324726642044,
azul,v,"[-1, 0.04, -1]",,,,,,,,,0,20,20,19,,,,,,,,,,,,,,,,,,,,,,,,,,,,,,,,,88.31664279988036,None,"['a', 'v']",0,"[0.9612720999866724, 2.1269543999806046]",88.2664942999836,None,,,ddd,001,2023_Mar_08_1742,stroop_task,3.2.3,59.80324726642044,
verde,a,"[-1, -1, 1]",,,,,,,,,0,21,21,1,,,,,,,,,,,,,,,,,,,,,,,,,,,,,,,,,90.46547299996018,None,['a'],0,[1.3282166998833418],90.41519219987094,None,,,ddd,001,2023_Mar_08_1742,stroop_task,3.2.3,59.80324726642044,
verde,n,"[1, 0.1, -1]",,,,,,,,,0,22,22,13,,,,,,,,,,,,,,,,,,,,,,,,,,,,,,,,,91.79814319987781,None,['n'],0,[0.8254366999026388],91.76474849996157,None,,,ddd,001,2023_Mar_08_1742,stroop_task,3.2.3,59.80324726642044,
verde,n,"[1, 0.1, -1]",,,,,,,,,0,23,23,12,,,,,,,,,,,,,,,,,,,,,,,,,,,,,,,,,92.64853270002641,None,['n'],0,[0.5124820000492036],92.61454420001246,None,,,ddd,001,2023_Mar_08_1742,stroop_task,3.2.3,59.80324726642044,
naranja,a,"[-1, -1, 1]",,,,,,,,,0,24,24,2,,,,,,,,,,,,,,,,,,,,,,,,,,,,,,,,,93.19723649998195,None,['a'],0,[0.8577242998871952],93.15939549985342,None,,,ddd,001,2023_Mar_08_1742,stroop_task,3.2.3,59.80324726642044,
naranja,a,"[-1, -1, 1]",,,,,,,,,0,25,25,3,,,,,,,,,,,,,,,,,,,,,,,,,,,,,,,,,94.08126619993709,None,['a'],0,[0.4778394000604749],94.04739569989033,None,,,ddd,001,2023_Mar_08_1742,stroop_task,3.2.3,59.80324726642044,
azul,n,"[1, 0.1, -1]",,,,,,,,,0,26,26,9,,,,,,,,,,,,,,,,,,,,,,,,,,,,,,,,,94.59723179996945,None,['n'],0,[0.6437162000220269],94.55909739993513,None,,,ddd,001,2023_Mar_08_1742,stroop_task,3.2.3,59.80324726642044,
lila,n,"[1, 0.1, -1]",,,,,,,,,0,27,27,14,,,,,,,,,,,,,,,,,,,,,,,,,,,,,,,,,95.26384039991535,None,['n'],0,[0.5972283999435604],95.22978889988735,None,,,ddd,001,2023_Mar_08_1742,stroop_task,3.2.3,59.80324726642044,
verde,a,"[-1, -1, 1]",,,,,,,,,0,28,28,0,,,,,,,,,,,,,,,,,,,,,,,,,,,,,,,,,95.89716719998978,None,['a'],0,[0.6492123000789434],95.85037709982134,None,,,ddd,001,2023_Mar_08_1742,stroop_task,3.2.3,59.80324726642044,
lila,v,"[-1, 0.04, -1]",,,,,,,,,0,29,29,24,,,,,,,,,,,,,,,,,,,,,,,,,,,,,,,,,96.57980249985121,None,['v'],0,[0.7919085000175983],96.5360512000043,None,,,ddd,001,2023_Mar_08_1742,stroop_task,3.2.3,59.80324726642044,
,,,,,,,,,,,,,,,,,,,,,,,,,,,,,,,,,,,,,,,,,,,,,,,,,,,,,,97.34663919988088,None,,,,,,,
