texto,color,trials.thisRepN,trials.thisTrialN,trials.thisN,trials.thisIndex,trials_2.thisRepN,trials_2.thisTrialN,trials_2.thisN,trials_2.thisIndex,trials_3.thisRepN,trials_3.thisTrialN,trials_3.thisN,trials_3.thisIndex,Instrucciones_texto.started,Instrucciones_texto.stopped,key_resp.keys,key_resp.rt,key_resp.started,key_resp.stopped,colores1.started,colores1.stopped,respuesta.keys,respuesta.rt,respuesta.started,respuesta.stopped,text_intructionses2.started,text_intructionses2.stopped,key_resp_2.keys,key_resp_2.rt,key_resp_2.started,key_resp_2.stopped,rectangulo.started,rectangulo.stopped,respuesta_rect.keys,respuesta_rect.rt,respuesta_rect.started,respuesta_rect.stopped,text.started,text.stopped,key_resp_3.keys,key_resp_3.rt,key_resp_3.started,key_resp_3.stopped,colores2.started,colores2.stopped,respuesta_mix.keys,respuesta_mix.rt,respuesta_mix.started,respuesta_mix.stopped,despedida.started,despedida.stopped,participant,session,date,expName,psychopyVersion,frameRate,
,,,,,,,,,,,,,,12.974891499849036,None,space,0.5701213001739234,18.938735799863935,None,,,,,,,,,,,,,,,,,,,,,,,,,,,,,,,,,dsb,001,2023_Mar_08_1520,stroop_task,3.2.3,59.96217585068236,
verde,,0,0,0,19,,,,,,,,,,,,,,,19.621699299896136,None,v,1.4759508001152426,19.571597599890083,None,,,,,,,,,,,,,,,,,,,,,,,,,,,dsb,001,2023_Mar_08_1520,stroop_task,3.2.3,59.96217585068236,
verde,,0,1,1,20,,,,,,,,,,,,,,,21.12096289987676,None,v,0.48911099997349083,21.070722199976444,None,,,,,,,,,,,,,,,,,,,,,,,,,,,dsb,001,2023_Mar_08_1520,stroop_task,3.2.3,59.96217585068236,
naranja,,0,2,2,9,,,,,,,,,,,,,,,21.63707279996015,None,n,0.4568441999144852,21.593098500045016,None,,,,,,,,,,,,,,,,,,,,,,,,,,,dsb,001,2023_Mar_08_1520,stroop_task,3.2.3,59.96217585068236,
azul,,0,3,3,8,,,,,,,,,,,,,,,22.11986540001817,None,a,0.5955479999538511,22.076483000069857,None,,,,,,,,,,,,,,,,,,,,,,,,,,,dsb,001,2023_Mar_08_1520,stroop_task,3.2.3,59.96217585068236,
naranja,,0,4,4,15,,,,,,,,,,,,,,,22.75313839991577,None,n,0.5955366000998765,22.714790399884805,None,,,,,,,,,,,,,,,,,,,,,,,,,,,dsb,001,2023_Mar_08_1520,stroop_task,3.2.3,59.96217585068236,
verde,,0,5,5,22,,,,,,,,,,,,,,,23.386830099858344,None,v,0.46685350011102855,23.34515569987707,None,,,,,,,,,,,,,,,,,,,,,,,,,,,dsb,001,2023_Mar_08_1520,stroop_task,3.2.3,59.96217585068236,
naranja,,0,6,6,16,,,,,,,,,,,,,,,23.8864885000512,None,n,0.6103386001195759,23.836526799947023,None,,,,,,,,,,,,,,,,,,,,,,,,,,,dsb,001,2023_Mar_08_1520,stroop_task,3.2.3,59.96217585068236,
naranja,,0,7,7,14,,,,,,,,,,,,,,,24.50294589996338,None,n,0.6398239000700414,24.469589199870825,None,,,,,,,,,,,,,,,,,,,,,,,,,,,dsb,001,2023_Mar_08_1520,stroop_task,3.2.3,59.96217585068236,
verde,,0,8,8,25,,,,,,,,,,,,,,,25.185582400066778,None,v,4.912382900016382,25.14350140001625,None,,,,,,,,,,,,,,,,,,,,,,,,,,,dsb,001,2023_Mar_08_1520,stroop_task,3.2.3,59.96217585068236,
verde,,0,9,9,26,,,,,,,,,,,,,,,30.11735840002075,None,v,0.4849853999912739,30.083976299967617,None,,,,,,,,,,,,,,,,,,,,,,,,,,,dsb,001,2023_Mar_08_1520,stroop_task,3.2.3,59.96217585068236,
azul,,0,10,10,3,,,,,,,,,,,,,,,30.63407379994169,None,a,0.5883649000898004,30.592013499932364,None,,,,,,,,,,,,,,,,,,,,,,,,,,,dsb,001,2023_Mar_08_1520,stroop_task,3.2.3,59.96217585068236,
azul,,0,11,11,0,,,,,,,,,,,,,,,31.234292400069535,None,a,0.5346785001456738,31.20101339998655,None,,,,,,,,,,,,,,,,,,,,,,,,,,,dsb,001,2023_Mar_08_1520,stroop_task,3.2.3,59.96217585068236,
azul,,0,12,12,1,,,,,,,,,,,,,,,31.80075960000977,None,a,0.8056155999656767,31.76693469984457,None,,,,,,,,,,,,,,,,,,,,,,,,,,,dsb,001,2023_Mar_08_1520,stroop_task,3.2.3,59.96217585068236,
naranja,,0,13,13,10,,,,,,,,,,,,,,,32.650175999850035,None,n,0.5313190999440849,32.613146799849346,None,,,,,,,,,,,,,,,,,,,,,,,,,,,dsb,001,2023_Mar_08_1520,stroop_task,3.2.3,59.96217585068236,
naranja,,0,14,14,17,,,,,,,,,,,,,,,33.199608199996874,None,n,0.6757934000343084,33.1666556999553,None,,,,,,,,,,,,,,,,,,,,,,,,,,,dsb,001,2023_Mar_08_1520,stroop_task,3.2.3,59.96217585068236,
verde,,0,15,15,21,,,,,,,,,,,,,,,33.91640429990366,None,v,0.5272947000339627,33.87573440000415,None,,,,,,,,,,,,,,,,,,,,,,,,,,,dsb,001,2023_Mar_08_1520,stroop_task,3.2.3,59.96217585068236,
naranja,,0,16,16,18,,,,,,,,,,,,,,,34.48278179997578,None,n,0.6638090999331325,34.438709300011396,None,,,,,,,,,,,,,,,,,,,,,,,,,,,dsb,001,2023_Mar_08_1520,stroop_task,3.2.3,59.96217585068236,
naranja,,0,17,17,13,,,,,,,,,,,,,,,35.16644539986737,None,n,0.4720544000156224,35.13307089987211,None,,,,,,,,,,,,,,,,,,,,,,,,,,,dsb,001,2023_Mar_08_1520,stroop_task,3.2.3,59.96217585068236,
verde,,0,18,18,24,,,,,,,,,,,,,,,35.682567399926484,None,v,0.6612078999169171,35.63232029997744,None,,,,,,,,,,,,,,,,,,,,,,,,,,,dsb,001,2023_Mar_08_1520,stroop_task,3.2.3,59.96217585068236,
azul,,0,19,19,7,,,,,,,,,,,,,,,36.365123899886385,None,a,1.2462398000061512,36.32315679988824,None,,,,,,,,,,,,,,,,,,,,,,,,,,,dsb,001,2023_Mar_08_1520,stroop_task,3.2.3,59.96217585068236,
verde,,0,20,20,28,,,,,,,,,,,,,,,37.64852329995483,None,v,0.9091602000407875,37.60650680004619,None,,,,,,,,,,,,,,,,,,,,,,,,,,,dsb,001,2023_Mar_08_1520,stroop_task,3.2.3,59.96217585068236,
azul,,0,21,21,5,,,,,,,,,,,,,,,38.58165879989974,None,a,0.5712274999823421,38.53251160006039,None,,,,,,,,,,,,,,,,,,,,,,,,,,,dsb,001,2023_Mar_08_1520,stroop_task,3.2.3,59.96217585068236,
azul,,0,22,22,4,,,,,,,,,,,,,,,39.16444860002957,None,a,0.5101876999251544,39.13126019993797,None,,,,,,,,,,,,,,,,,,,,,,,,,,,dsb,001,2023_Mar_08_1520,stroop_task,3.2.3,59.96217585068236,
naranja,,0,23,23,11,,,,,,,,,,,,,,,39.7144214999862,None,n,0.5504703999031335,39.66946280002594,None,,,,,,,,,,,,,,,,,,,,,,,,,,,dsb,001,2023_Mar_08_1520,stroop_task,3.2.3,59.96217585068236,
verde,,0,24,24,23,,,,,,,,,,,,,,,40.29714739997871,None,v,0.5822962000966072,40.25659239990637,None,,,,,,,,,,,,,,,,,,,,,,,,,,,dsb,001,2023_Mar_08_1520,stroop_task,3.2.3,59.96217585068236,
azul,,0,25,25,6,,,,,,,,,,,,,,,40.89693799987435,None,a,1.1416623999830335,40.86393629992381,None,,,,,,,,,,,,,,,,,,,,,,,,,,,dsb,001,2023_Mar_08_1520,stroop_task,3.2.3,59.96217585068236,
azul,,0,26,26,2,,,,,,,,,,,,,,,42.06354280002415,None,a,0.4334798001218587,42.03034930001013,None,,,,,,,,,,,,,,,,,,,,,,,,,,,dsb,001,2023_Mar_08_1520,stroop_task,3.2.3,59.96217585068236,
naranja,,0,27,27,12,,,,,,,,,,,,,,,42.52982779988088,None,n,0.49399160011671484,42.4895969000645,None,,,,,,,,,,,,,,,,,,,,,,,,,,,dsb,001,2023_Mar_08_1520,stroop_task,3.2.3,59.96217585068236,
verde,,0,28,28,27,,,,,,,,,,,,,,,43.063060799846426,None,v,0.6219122000038624,43.02339660003781,None,,,,,,,,,,,,,,,,,,,,,,,,,,,dsb,001,2023_Mar_08_1520,stroop_task,3.2.3,59.96217585068236,
,,,,,,,,,,,,,,,,,,,,,,,,,,43.66394170001149,None,space,0.9217906000558287,48.64556189998984,None,,,,,,,,,,,,,,,,,,,,,dsb,001,2023_Mar_08_1520,stroop_task,3.2.3,59.96217585068236,
,"[1, 0.1, -1]",,,,,0,0,0,18,,,,,,,,,,,,,,,,,,,,,,,49.66142660006881,None,n,1.2111808001063764,49.61063859984279,None,,,,,,,,,,,,,,,dsb,001,2023_Mar_08_1520,stroop_task,3.2.3,59.96217585068236,
,"[1, 0.1, -1]",,,,,0,1,1,14,,,,,,,,,,,,,,,,,,,,,,,50.87756709987298,None,n,0.712117400020361,50.84325939998962,None,,,,,,,,,,,,,,,dsb,001,2023_Mar_08_1520,stroop_task,3.2.3,59.96217585068236,
,"[-1, 0.04, -1]",,,,,0,2,2,24,,,,,,,,,,,,,,,,,,,,,,,51.62791959987953,None,v,0.6382780000567436,51.57696259999648,None,,,,,,,,,,,,,,,dsb,001,2023_Mar_08_1520,stroop_task,3.2.3,59.96217585068236,
,"[-1, 0.04, -1]",,,,,0,3,3,23,,,,,,,,,,,,,,,,,,,,,,,52.29380810004659,None,v,0.604744500014931,52.24374479986727,None,,,,,,,,,,,,,,,dsb,001,2023_Mar_08_1520,stroop_task,3.2.3,59.96217585068236,
,"[1, 0.1, -1]",,,,,0,4,4,10,,,,,,,,,,,,,,,,,,,,,,,52.910021299961954,None,n,0.5671661000233144,52.87615350005217,None,,,,,,,,,,,,,,,dsb,001,2023_Mar_08_1520,stroop_task,3.2.3,59.96217585068236,
,"[-1, 0.04, -1]",,,,,0,5,5,22,,,,,,,,,,,,,,,,,,,,,,,53.51008350006305,None,v,0.53656080015935,53.461693699937314,None,,,,,,,,,,,,,,,dsb,001,2023_Mar_08_1520,stroop_task,3.2.3,59.96217585068236,
,"[-1, -1, 1]",,,,,0,6,6,1,,,,,,,,,,,,,,,,,,,,,,,54.07660540007055,None,a,0.5342628001235425,54.02638219995424,None,,,,,,,,,,,,,,,dsb,001,2023_Mar_08_1520,stroop_task,3.2.3,59.96217585068236,
,"[1, 0.1, -1]",,,,,0,7,7,17,,,,,,,,,,,,,,,,,,,,,,,54.61002660007216,None,n,1.6543393000029027,54.5764571998734,None,,,,,,,,,,,,,,,dsb,001,2023_Mar_08_1520,stroop_task,3.2.3,59.96217585068236,
,"[-1, 0.04, -1]",,,,,0,8,8,28,,,,,,,,,,,,,,,,,,,,,,,56.30918219988234,None,v,0.5753152999095619,56.2589109998662,None,,,,,,,,,,,,,,,dsb,001,2023_Mar_08_1520,stroop_task,3.2.3,59.96217585068236,
,"[1, 0.1, -1]",,,,,0,9,9,16,,,,,,,,,,,,,,,,,,,,,,,56.892103399848565,None,n,1.4288329998962581,56.85819080006331,None,,,,,,,,,,,,,,,dsb,001,2023_Mar_08_1520,stroop_task,3.2.3,59.96217585068236,
,"[1, 0.1, -1]",,,,,0,10,10,15,,,,,,,,,,,,,,,,,,,,,,,58.35822269995697,None,n,0.47387280012480915,58.307645299937576,None,,,,,,,,,,,,,,,dsb,001,2023_Mar_08_1520,stroop_task,3.2.3,59.96217585068236,
,"[1, 0.1, -1]",,,,,0,11,11,12,,,,,,,,,,,,,,,,,,,,,,,58.85825809999369,None,n,0.7368787999730557,58.8074630999472,None,,,,,,,,,,,,,,,dsb,001,2023_Mar_08_1520,stroop_task,3.2.3,59.96217585068236,
,"[-1, -1, 1]",,,,,0,12,12,4,,,,,,,,,,,,,,,,,,,,,,,59.624797499971464,None,a,0.5948330999817699,59.574641099898145,None,,,,,,,,,,,,,,,dsb,001,2023_Mar_08_1520,stroop_task,3.2.3,59.96217585068236,
,"[-1, 0.04, -1]",,,,,0,13,13,26,,,,,,,,,,,,,,,,,,,,,,,60.241003199946135,None,v,0.5252167999278754,60.19060850003734,None,,,,,,,,,,,,,,,dsb,001,2023_Mar_08_1520,stroop_task,3.2.3,59.96217585068236,
,"[-1, -1, 1]",,,,,0,14,14,7,,,,,,,,,,,,,,,,,,,,,,,60.79100460000336,None,a,0.7372364001348615,60.740579599980265,None,,,,,,,,,,,,,,,dsb,001,2023_Mar_08_1520,stroop_task,3.2.3,59.96217585068236,
,"[-1, 0.04, -1]",,,,,0,15,15,27,,,,,,,,,,,,,,,,,,,,,,,61.54050790006295,None,v,0.4611678998917341,61.50709549989551,None,,,,,,,,,,,,,,,dsb,001,2023_Mar_08_1520,stroop_task,3.2.3,59.96217585068236,
,"[1, 0.1, -1]",,,,,0,16,16,9,,,,,,,,,,,,,,,,,,,,,,,62.041073499945924,None,n,0.5203701998107135,61.990058599971235,None,,,,,,,,,,,,,,,dsb,001,2023_Mar_08_1520,stroop_task,3.2.3,59.96217585068236,
,"[-1, 0.04, -1]",,,,,0,17,17,21,,,,,,,,,,,,,,,,,,,,,,,62.59036719985306,None,v,0.9480913998559117,62.539908200036734,None,,,,,,,,,,,,,,,dsb,001,2023_Mar_08_1520,stroop_task,3.2.3,59.96217585068236,
,"[-1, -1, 1]",,,,,0,18,18,6,,,,,,,,,,,,,,,,,,,,,,,63.53994149994105,None,a,0.6680291998200119,63.50659170001745,None,,,,,,,,,,,,,,,dsb,001,2023_Mar_08_1520,stroop_task,3.2.3,59.96217585068236,
,"[-1, -1, 1]",,,,,0,19,19,8,,,,,,,,,,,,,,,,,,,,,,,64.23983959993348,None,a,0.5086179999634624,64.19040169985965,None,,,,,,,,,,,,,,,dsb,001,2023_Mar_08_1520,stroop_task,3.2.3,59.96217585068236,
,"[-1, 0.04, -1]",,,,,0,20,20,20,,,,,,,,,,,,,,,,,,,,,,,64.75606549996883,None,v,0.5936757000163198,64.72265869984403,None,,,,,,,,,,,,,,,dsb,001,2023_Mar_08_1520,stroop_task,3.2.3,59.96217585068236,
,"[-1, -1, 1]",,,,,0,21,21,3,,,,,,,,,,,,,,,,,,,,,,,65.3729143999517,None,a,0.8503538998775184,65.33916909992695,None,,,,,,,,,,,,,,,dsb,001,2023_Mar_08_1520,stroop_task,3.2.3,59.96217585068236,
,"[-1, 0.04, -1]",,,,,0,22,22,25,,,,,,,,,,,,,,,,,,,,,,,66.23947359994054,None,v,1.025415200041607,66.20509839989245,None,,,,,,,,,,,,,,,dsb,001,2023_Mar_08_1520,stroop_task,3.2.3,59.96217585068236,
,"[1, 0.1, -1]",,,,,0,23,23,11,,,,,,,,,,,,,,,,,,,,,,,67.28887729998678,None,n,0.4789656999055296,67.2552875999827,None,,,,,,,,,,,,,,,dsb,001,2023_Mar_08_1520,stroop_task,3.2.3,59.96217585068236,
,"[-1, -1, 1]",,,,,0,24,24,2,,,,,,,,,,,,,,,,,,,,,,,67.78864479996264,None,a,0.6557797000277787,67.75496789999306,None,,,,,,,,,,,,,,,dsb,001,2023_Mar_08_1520,stroop_task,3.2.3,59.96217585068236,
,"[-1, 0.04, -1]",,,,,0,25,25,19,,,,,,,,,,,,,,,,,,,,,,,68.48891790001653,None,v,0.46617909986525774,68.43787109991536,None,,,,,,,,,,,,,,,dsb,001,2023_Mar_08_1520,stroop_task,3.2.3,59.96217585068236,
,"[-1, -1, 1]",,,,,0,26,26,5,,,,,,,,,,,,,,,,,,,,,,,68.95481000002474,None,a,0.5232458000537008,68.92105189990252,None,,,,,,,,,,,,,,,dsb,001,2023_Mar_08_1520,stroop_task,3.2.3,59.96217585068236,
,"[-1, -1, 1]",,,,,0,27,27,0,,,,,,,,,,,,,,,,,,,,,,,69.50464820000343,None,a,0.7114836999680847,69.47070760000497,None,,,,,,,,,,,,,,,dsb,001,2023_Mar_08_1520,stroop_task,3.2.3,59.96217585068236,
,"[1, 0.1, -1]",,,,,0,28,28,13,,,,,,,,,,,,,,,,,,,,,,,70.2376321000047,None,n,0.8440354999620467,70.20401440002024,None,,,,,,,,,,,,,,,dsb,001,2023_Mar_08_1520,stroop_task,3.2.3,59.96217585068236,
,,,,,,,,,,,,,,,,,,,,,,,,,,,,,,,,,,,,,,71.0709478999488,None,space,0.42976440000347793,76.05280169984326,None,,,,,,,,,dsb,001,2023_Mar_08_1520,stroop_task,3.2.3,59.96217585068236,
naranja,"[-1, 0.04, -1]",,,,,,,,,0,0,0,26,,,,,,,,,,,,,,,,,,,,,,,,,,,,,,,76.55183060001582,None,v,1.4376846000086516,76.52440940006636,None,,,dsb,001,2023_Mar_08_1520,stroop_task,3.2.3,59.96217585068236,
naranja,"[-1, 0.04, -1]",,,,,,,,,0,1,1,24,,,,,,,,,,,,,,,,,,,,,,,,,,,,,,,78.01817799988203,None,v,0.6708993001375347,77.98437189985998,None,,,dsb,001,2023_Mar_08_1520,stroop_task,3.2.3,59.96217585068236,
naranja,"[-1, -1, 1]",,,,,,,,,0,2,2,6,,,,,,,,,,,,,,,,,,,,,,,,,,,,,,,78.71802200004458,None,a,0.5521418999414891,78.68461659993045,None,,,dsb,001,2023_Mar_08_1520,stroop_task,3.2.3,59.96217585068236,
azul,"[-1, 0.04, -1]",,,,,,,,,0,3,3,20,,,,,,,,,,,,,,,,,,,,,,,,,,,,,,,79.3005387999583,None,v,0.6441782000474632,79.25871989992447,None,,,dsb,001,2023_Mar_08_1520,stroop_task,3.2.3,59.96217585068236,
naranja,"[-1, -1, 1]",,,,,,,,,0,4,4,4,,,,,,,,,,,,,,,,,,,,,,,,,,,,,,,79.98416660004295,None,a,0.7318585000466555,79.94408380007371,None,,,dsb,001,2023_Mar_08_1520,stroop_task,3.2.3,59.96217585068236,
naranja,"[-1, -1, 1]",,,,,,,,,0,5,5,8,,,,,,,,,,,,,,,,,,,,,,,,,,,,,,,80.73317099991255,None,a,0.7092302001547068,80.70065859984607,None,,,dsb,001,2023_Mar_08_1520,stroop_task,3.2.3,59.96217585068236,
azul,"[-1, 0.04, -1]",,,,,,,,,0,6,6,23,,,,,,,,,,,,,,,,,,,,,,,,,,,,,,,81.46676509990357,None,v,0.7437750000972301,81.43375259987079,None,,,dsb,001,2023_Mar_08_1520,stroop_task,3.2.3,59.96217585068236,
verde,"[-1, -1, 1]",,,,,,,,,0,7,7,3,,,,,,,,,,,,,,,,,,,,,,,,,,,,,,,82.2335146998521,None,a,0.8331528999842703,82.1998437999282,None,,,dsb,001,2023_Mar_08_1520,stroop_task,3.2.3,59.96217585068236,
verde,"[1, 0.1, -1]",,,,,,,,,0,8,8,11,,,,,,,,,,,,,,,,,,,,,,,,,,,,,,,83.09936239989474,None,n,0.6068627999629825,83.0665008998476,None,,,dsb,001,2023_Mar_08_1520,stroop_task,3.2.3,59.96217585068236,
naranja,"[-1, 0.04, -1]",,,,,,,,,0,9,9,25,,,,,,,,,,,,,,,,,,,,,,,,,,,,,,,83.74956759996712,None,v,0.8289325998630375,83.70598329999484,None,,,dsb,001,2023_Mar_08_1520,stroop_task,3.2.3,59.96217585068236,
azul,"[1, 0.1, -1]",,,,,,,,,0,10,10,17,,,,,,,,,,,,,,,,,,,,,,,,,,,,,,,84.61568759987131,None,n,0.9705145999323577,84.57262129988521,None,,,dsb,001,2023_Mar_08_1520,stroop_task,3.2.3,59.96217585068236,
verde,"[1, 0.1, -1]",,,,,,,,,0,11,11,13,,,,,,,,,,,,,,,,,,,,,,,,,,,,,,,85.61555159999989,None,n,0.7215768001042306,85.57354449993,None,,,dsb,001,2023_Mar_08_1520,stroop_task,3.2.3,59.96217585068236,
verde,"[1, 0.1, -1]",,,,,,,,,0,12,12,12,,,,,,,,,,,,,,,,,,,,,,,,,,,,,,,86.34835470002145,None,n,0.7270829998888075,86.31515869987197,None,,,dsb,001,2023_Mar_08_1520,stroop_task,3.2.3,59.96217585068236,
naranja,"[-1, -1, 1]",,,,,,,,,0,13,13,7,,,,,,,,,,,,,,,,,,,,,,,,,,,,,,,87.11463769990951,None,a,4.385088099865243,87.07816529995762,None,,,dsb,001,2023_Mar_08_1520,stroop_task,3.2.3,59.96217585068236,
verde,"[-1, -1, 1]",,,,,,,,,0,14,14,0,,,,,,,,,,,,,,,,,,,,,,,,,,,,,,,91.52998110000044,None,a,3.9741694000549614,91.49131700000726,None,,,dsb,001,2023_Mar_08_1520,stroop_task,3.2.3,59.96217585068236,
azul,"[-1, 0.04, -1]",,,,,,,,,0,15,15,19,,,,,,,,,,,,,,,,,,,,,,,,,,,,,,,95.5455537000671,None,v,4.19832510012202,95.4955225000158,None,,,dsb,001,2023_Mar_08_1520,stroop_task,3.2.3,59.96217585068236,
azul,"[1, 0.1, -1]",,,,,,,,,0,16,16,16,,,,,,,,,,,,,,,,,,,,,,,,,,,,,,,99.74412019993179,None,n,4.412137100007385,99.7106246999465,None,,,dsb,001,2023_Mar_08_1520,stroop_task,3.2.3,59.96217585068236,
verde,"[-1, -1, 1]",,,,,,,,,0,17,17,1,,,,,,,,,,,,,,,,,,,,,,,,,,,,,,,104.17533849994652,None,a,0.8541937000118196,104.14201979991049,None,,,dsb,001,2023_Mar_08_1520,stroop_task,3.2.3,59.96217585068236,
naranja,"[-1, -1, 1]",,,,,,,,,0,18,18,5,,,,,,,,,,,,,,,,,,,,,,,,,,,,,,,105.05846489989199,None,a,1.997916999971494,105.0250552999787,None,,,dsb,001,2023_Mar_08_1520,stroop_task,3.2.3,59.96217585068236,
azul,"[-1, 0.04, -1]",,,,,,,,,0,19,19,22,,,,,,,,,,,,,,,,,,,,,,,,,,,,,,,107.07442059996538,None,v,1.8641454000025988,107.04097949992865,None,,,dsb,001,2023_Mar_08_1520,stroop_task,3.2.3,59.96217585068236,
naranja,"[-1, 0.04, -1]",,,,,,,,,0,20,20,28,,,,,,,,,,,,,,,,,,,,,,,,,,,,,,,108.97373409988359,None,v,2.4877138000447303,108.9236963998992,None,,,dsb,001,2023_Mar_08_1520,stroop_task,3.2.3,59.96217585068236,
azul,"[1, 0.1, -1]",,,,,,,,,0,21,21,18,,,,,,,,,,,,,,,,,,,,,,,,,,,,,,,111.47288809996098,None,n,0.602056099800393,111.43949879985303,None,,,dsb,001,2023_Mar_08_1520,stroop_task,3.2.3,59.96217585068236,
azul,"[1, 0.1, -1]",,,,,,,,,0,22,22,15,,,,,,,,,,,,,,,,,,,,,,,,,,,,,,,112.09035189985298,None,n,1.2478600998874754,112.05641229986213,None,,,dsb,001,2023_Mar_08_1520,stroop_task,3.2.3,59.96217585068236,
verde,"[1, 0.1, -1]",,,,,,,,,0,23,23,10,,,,,,,,,,,,,,,,,,,,,,,,,,,,,,,113.37227030005306,None,n,0.9519944998901337,113.3335522999987,None,,,dsb,001,2023_Mar_08_1520,stroop_task,3.2.3,59.96217585068236,
verde,"[1, 0.1, -1]",,,,,,,,,0,24,24,9,,,,,,,,,,,,,,,,,,,,,,,,,,,,,,,114.33920990000479,None,n,0.47295939992181957,114.30590969999321,None,,,dsb,001,2023_Mar_08_1520,stroop_task,3.2.3,59.96217585068236,
verde,"[-1, -1, 1]",,,,,,,,,0,25,25,2,,,,,,,,,,,,,,,,,,,,,,,,,,,,,,,114.83840340003371,None,a,0.5220101999584585,114.80527310003527,None,,,dsb,001,2023_Mar_08_1520,stroop_task,3.2.3,59.96217585068236,
azul,"[-1, 0.04, -1]",,,,,,,,,0,26,26,21,,,,,,,,,,,,,,,,,,,,,,,,,,,,,,,115.40506120002829,None,v,0.7648361998144537,115.35527679999359,None,,,dsb,001,2023_Mar_08_1520,stroop_task,3.2.3,59.96217585068236,
azul,"[1, 0.1, -1]",,,,,,,,,0,27,27,14,,,,,,,,,,,,,,,,,,,,,,,,,,,,,,,116.17192659992725,None,n,0.8276247999165207,116.13871599989943,None,,,dsb,001,2023_Mar_08_1520,stroop_task,3.2.3,59.96217585068236,
naranja,"[-1, 0.04, -1]",,,,,,,,,0,28,28,27,,,,,,,,,,,,,,,,,,,,,,,,,,,,,,,117.03759469999932,None,v,0.6223530999850482,117.00168860005215,None,,,dsb,001,2023_Mar_08_1520,stroop_task,3.2.3,59.96217585068236,
,,,,,,,,,,,,,,,,,,,,,,,,,,,,,,,,,,,,,,,,,,,,,,,,,,117.65494569996372,None,,,,,,,
