texto,answer,color,trials.thisRepN,trials.thisTrialN,trials.thisN,trials.thisIndex,trials_2.thisRepN,trials_2.thisTrialN,trials_2.thisN,trials_2.thisIndex,trials_3.thisRepN,trials_3.thisTrialN,trials_3.thisN,trials_3.thisIndex,Instrucciones_texto.started,Instrucciones_texto.stopped,key_resp.keys,key_resp.rt,key_resp.started,key_resp.stopped,colores1.started,colores1.stopped,respuesta.keys,respuesta.corr,respuesta.rt,respuesta.started,respuesta.stopped,text_intructionses2.started,text_intructionses2.stopped,key_resp_2.keys,key_resp_2.rt,key_resp_2.started,key_resp_2.stopped,rectangulo.started,rectangulo.stopped,respuesta_rect.keys,respuesta_rect.corr,respuesta_rect.rt,respuesta_rect.started,respuesta_rect.stopped,text.started,text.stopped,key_resp_3.keys,key_resp_3.rt,key_resp_3.started,key_resp_3.stopped,colores2.started,colores2.stopped,respuesta_mix.keys,respuesta_mix.corr,respuesta_mix.rt,respuesta_mix.started,respuesta_mix.stopped,despedida.started,despedida.stopped,participant,session,date,expName,psychopyVersion,frameRate,
,,,,,,,,,,,,,,,10.097182599827647,None,space,0.3895287001505494,16.05714129982516,None,,,,,,,,,,,,,,,,,,,,,,,,,,,,,,,,,,,,eba,001,2023_Mar_08_1745,stroop_task,3.2.3,60.234577501632266,
azul,a,,0,0,0,2,,,,,,,,,,,,,,,16.555972900008783,None,['a'],0,[0.6773459000978619],16.520286899991333,None,,,,,,,,,,,,,,,,,,,,,,,,,,,,,eba,001,2023_Mar_08_1745,stroop_task,3.2.3,60.234577501632266,
verde,v,,0,1,1,24,,,,,,,,,,,,,,,17.272738500032574,None,"['n', 'v']",0,"[0.5548500001896173, 0.8414498001802713]",17.23496209993027,None,,,,,,,,,,,,,,,,,,,,,,,,,,,,,eba,001,2023_Mar_08_1745,stroop_task,3.2.3,60.234577501632266,
naranja,n,,0,2,2,15,,,,,,,,,,,,,,,18.172084899852052,None,['n'],0,[0.4777985999826342],18.119793699821457,None,,,,,,,,,,,,,,,,,,,,,,,,,,,,,eba,001,2023_Mar_08_1745,stroop_task,3.2.3,60.234577501632266,
verde,v,,0,3,3,17,,,,,,,,,,,,,,,18.655365099897608,None,['v'],0,[0.39855489996261895],18.62248789984733,None,,,,,,,,,,,,,,,,,,,,,,,,,,,,,eba,001,2023_Mar_08_1745,stroop_task,3.2.3,60.234577501632266,
lila,l,,0,4,4,31,,,,,,,,,,,,,,,19.08887519990094,None,['l'],0,[0.4925286998040974],19.038922499865294,None,,,,,,,,,,,,,,,,,,,,,,,,,,,,,eba,001,2023_Mar_08_1745,stroop_task,3.2.3,60.234577501632266,
naranja,n,,0,5,5,8,,,,,,,,,,,,,,,19.60482049989514,None,['n'],0,[0.5723290999885648],19.564527299953625,None,,,,,,,,,,,,,,,,,,,,,,,,,,,,,eba,001,2023_Mar_08_1745,stroop_task,3.2.3,60.234577501632266,
lila,l,,0,6,6,30,,,,,,,,,,,,,,,20.205226899823174,None,['l'],0,[0.8177868998609483],20.157432599924505,None,,,,,,,,,,,,,,,,,,,,,,,,,,,,,eba,001,2023_Mar_08_1745,stroop_task,3.2.3,60.234577501632266,
verde,v,,0,7,7,23,,,,,,,,,,,,,,,21.03759119985625,None,['v'],0,[0.6225845001172274],21.004903999855742,None,,,,,,,,,,,,,,,,,,,,,,,,,,,,,eba,001,2023_Mar_08_1745,stroop_task,3.2.3,60.234577501632266,
lila,l,,0,8,8,26,,,,,,,,,,,,,,,21.70426349993795,None,['l'],0,[0.4910309000406414],21.654093999881297,None,,,,,,,,,,,,,,,,,,,,,,,,,,,,,eba,001,2023_Mar_08_1745,stroop_task,3.2.3,60.234577501632266,
naranja,n,,0,9,9,11,,,,,,,,,,,,,,,22.221220899838954,None,['n'],0,[0.5663486998528242],22.18533599982038,None,,,,,,,,,,,,,,,,,,,,,,,,,,,,,eba,001,2023_Mar_08_1745,stroop_task,3.2.3,60.234577501632266,
verde,v,,0,10,10,19,,,,,,,,,,,,,,,22.820426399819553,None,['v'],0,[0.7121689999476075],22.771378699922934,None,,,,,,,,,,,,,,,,,,,,,,,,,,,,,eba,001,2023_Mar_08_1745,stroop_task,3.2.3,60.234577501632266,
verde,v,,0,11,11,22,,,,,,,,,,,,,,,23.537480999948457,None,['v'],0,[0.46630099997855723],23.503470999887213,None,,,,,,,,,,,,,,,,,,,,,,,,,,,,,eba,001,2023_Mar_08_1745,stroop_task,3.2.3,60.234577501632266,
verde,v,,0,12,12,21,,,,,,,,,,,,,,,24.02064020000398,None,['v'],0,[0.4520026999525726],23.98674670001492,None,,,,,,,,,,,,,,,,,,,,,,,,,,,,,eba,001,2023_Mar_08_1745,stroop_task,3.2.3,60.234577501632266,
naranja,n,,0,13,13,9,,,,,,,,,,,,,,,24.520259199896827,None,['n'],0,[0.6719010998494923],24.470428799977526,None,,,,,,,,,,,,,,,,,,,,,,,,,,,,,eba,001,2023_Mar_08_1745,stroop_task,3.2.3,60.234577501632266,
azul,a,,0,14,14,5,,,,,,,,,,,,,,,25.2028047000058,None,['a'],0,[0.5333449000027031],25.17526389984414,None,,,,,,,,,,,,,,,,,,,,,,,,,,,,,eba,001,2023_Mar_08_1745,stroop_task,3.2.3,60.234577501632266,
naranja,n,,0,15,15,14,,,,,,,,,,,,,,,25.786501299822703,None,['n'],0,[0.5880142000969499],25.736503300024197,None,,,,,,,,,,,,,,,,,,,,,,,,,,,,,eba,001,2023_Mar_08_1745,stroop_task,3.2.3,60.234577501632266,
lila,l,,0,16,16,29,,,,,,,,,,,,,,,26.40274959988892,None,['l'],0,[0.553596000187099],26.36212439998053,None,,,,,,,,,,,,,,,,,,,,,,,,,,,,,eba,001,2023_Mar_08_1745,stroop_task,3.2.3,60.234577501632266,
naranja,n,,0,17,17,16,,,,,,,,,,,,,,,26.98610550002195,None,['n'],0,[0.58710110001266],26.936175799928606,None,,,,,,,,,,,,,,,,,,,,,,,,,,,,,eba,001,2023_Mar_08_1745,stroop_task,3.2.3,60.234577501632266,
azul,a,,0,18,18,7,,,,,,,,,,,,,,,27.585393499815837,None,['a'],0,[0.5598933999426663],27.551792099839076,None,,,,,,,,,,,,,,,,,,,,,,,,,,,,,eba,001,2023_Mar_08_1745,stroop_task,3.2.3,60.234577501632266,
verde,v,,0,19,19,25,,,,,,,,,,,,,,,28.185648599872366,None,['v'],0,[0.6382877000141889],28.14620289998129,None,,,,,,,,,,,,,,,,,,,,,,,,,,,,,eba,001,2023_Mar_08_1745,stroop_task,3.2.3,60.234577501632266,
lila,l,,0,20,20,28,,,,,,,,,,,,,,,28.83501619985327,None,['l'],0,[0.763798400061205],28.80245970003307,None,,,,,,,,,,,,,,,,,,,,,,,,,,,,,eba,001,2023_Mar_08_1745,stroop_task,3.2.3,60.234577501632266,
naranja,n,,0,21,21,12,,,,,,,,,,,,,,,29.635149399982765,None,['n'],0,[1.117423300165683],29.585552299860865,None,,,,,,,,,,,,,,,,,,,,,,,,,,,,,eba,001,2023_Mar_08_1745,stroop_task,3.2.3,60.234577501632266,
azul,a,,0,22,22,4,,,,,,,,,,,,,,,30.767966599902138,None,['a'],0,[0.625827900134027],30.72576399985701,None,,,,,,,,,,,,,,,,,,,,,,,,,,,,,eba,001,2023_Mar_08_1745,stroop_task,3.2.3,60.234577501632266,
lila,l,,0,23,23,32,,,,,,,,,,,,,,,31.400903000030667,None,['l'],0,[0.7390634000767022],31.36863569985144,None,,,,,,,,,,,,,,,,,,,,,,,,,,,,,eba,001,2023_Mar_08_1745,stroop_task,3.2.3,60.234577501632266,
verde,v,,0,24,24,18,,,,,,,,,,,,,,,32.18358129984699,None,['v'],0,[0.4367704000324011],32.145374699961394,None,,,,,,,,,,,,,,,,,,,,,,,,,,,,,eba,001,2023_Mar_08_1745,stroop_task,3.2.3,60.234577501632266,
naranja,n,,0,25,25,10,,,,,,,,,,,,,,,32.65097979991697,None,['n'],0,[0.5702166000846773],32.60766879981384,None,,,,,,,,,,,,,,,,,,,,,,,,,,,,,eba,001,2023_Mar_08_1745,stroop_task,3.2.3,60.234577501632266,
verde,v,,0,26,26,20,,,,,,,,,,,,,,,33.25026279990561,None,['v'],0,[0.4052695999853313],33.208222599932924,None,,,,,,,,,,,,,,,,,,,,,,,,,,,,,eba,001,2023_Mar_08_1745,stroop_task,3.2.3,60.234577501632266,
lila,l,,0,27,27,34,,,,,,,,,,,,,,,33.666829800000414,None,['l'],0,[0.5358964998740703],33.633444499922916,None,,,,,,,,,,,,,,,,,,,,,,,,,,,,,eba,001,2023_Mar_08_1745,stroop_task,3.2.3,60.234577501632266,
azul,a,,0,28,28,6,,,,,,,,,,,,,,,34.25011969986372,None,['a'],0,[0.35272089997306466],34.208685899851844,None,,,,,,,,,,,,,,,,,,,,,,,,,,,,,eba,001,2023_Mar_08_1745,stroop_task,3.2.3,60.234577501632266,
lila,l,,0,29,29,27,,,,,,,,,,,,,,,34.61634339997545,None,['l'],0,[0.903294499963522],34.58334619994275,None,,,,,,,,,,,,,,,,,,,,,,,,,,,,,eba,001,2023_Mar_08_1745,stroop_task,3.2.3,60.234577501632266,
azul,a,,0,30,30,1,,,,,,,,,,,,,,,35.549545999849215,None,['a'],0,[0.4890755000524223],35.516411599935964,None,,,,,,,,,,,,,,,,,,,,,,,,,,,,,eba,001,2023_Mar_08_1745,stroop_task,3.2.3,60.234577501632266,
azul,a,,0,31,31,0,,,,,,,,,,,,,,,36.06606539990753,None,['a'],0,[0.5598822000902146],36.032723099924624,None,,,,,,,,,,,,,,,,,,,,,,,,,,,,,eba,001,2023_Mar_08_1745,stroop_task,3.2.3,60.234577501632266,
naranja,n,,0,32,32,13,,,,,,,,,,,,,,,36.66545520001091,None,['n'],0,[0.8073104999493808],36.62764859991148,None,,,,,,,,,,,,,,,,,,,,,,,,,,,,,eba,001,2023_Mar_08_1745,stroop_task,3.2.3,60.234577501632266,
lila,l,,0,33,33,33,,,,,,,,,,,,,,,37.515657800016925,None,['l'],0,[0.7424183001276106],37.47412439994514,None,,,,,,,,,,,,,,,,,,,,,,,,,,,,,eba,001,2023_Mar_08_1745,stroop_task,3.2.3,60.234577501632266,
azul,a,,0,34,34,3,,,,,,,,,,,,,,,38.28160939994268,None,['a'],0,[0.49378350004553795],38.23160389997065,None,,,,,,,,,,,,,,,,,,,,,,,,,,,,,eba,001,2023_Mar_08_1745,stroop_task,3.2.3,60.234577501632266,
,,,,,,,,,,,,,,,,,,,,,,,,,,,,38.748537599807605,None,space,1.1023870001081377,43.73069110000506,None,,,,,,,,,,,,,,,,,,,,,,,eba,001,2023_Mar_08_1745,stroop_task,3.2.3,60.234577501632266,
,n,"[1, 0.1, -1]",,,,,0,0,0,11,,,,,,,,,,,,,,,,,,,,,,,,44.913801699876785,None,['n'],0,[1.10389140015468],44.867681599920616,None,,,,,,,,,,,,,,,,eba,001,2023_Mar_08_1745,stroop_task,3.2.3,60.234577501632266,
,l,"[0.004, -1, 0.004]",,,,,0,1,1,31,,,,,,,,,,,,,,,,,,,,,,,,46.029774099821225,None,['l'],0,[0.5663825999945402],45.99590879981406,None,,,,,,,,,,,,,,,,eba,001,2023_Mar_08_1745,stroop_task,3.2.3,60.234577501632266,
,a,"[-1, -1, 1]",,,,,0,2,2,3,,,,,,,,,,,,,,,,,,,,,,,,46.613213300006464,None,['a'],0,[0.569467999972403],46.579162599984556,None,,,,,,,,,,,,,,,,eba,001,2023_Mar_08_1745,stroop_task,3.2.3,60.234577501632266,
,n,"[1, 0.1, -1]",,,,,0,3,3,13,,,,,,,,,,,,,,,,,,,,,,,,47.22966149984859,None,['n'],0,[0.7771457000635564],47.17902779998258,None,,,,,,,,,,,,,,,,eba,001,2023_Mar_08_1745,stroop_task,3.2.3,60.234577501632266,
,v,"[-1, 0.04, -1]",,,,,0,4,4,24,,,,,,,,,,,,,,,,,,,,,,,,48.01267490000464,None,['v'],0,[0.4699810000602156],47.97862079995684,None,,,,,,,,,,,,,,,,eba,001,2023_Mar_08_1745,stroop_task,3.2.3,60.234577501632266,
,a,"[-1, -1, 1]",,,,,0,5,5,6,,,,,,,,,,,,,,,,,,,,,,,,48.51221999991685,None,['a'],0,[0.6824060999788344],48.478886999888346,None,,,,,,,,,,,,,,,,eba,001,2023_Mar_08_1745,stroop_task,3.2.3,60.234577501632266,
,a,"[-1, -1, 1]",,,,,0,6,6,7,,,,,,,,,,,,,,,,,,,,,,,,49.229043199913576,None,['a'],0,[0.46624370012432337],49.178366099949926,None,,,,,,,,,,,,,,,,eba,001,2023_Mar_08_1745,stroop_task,3.2.3,60.234577501632266,
,l,"[0.004, -1, 0.004]",,,,,0,7,7,26,,,,,,,,,,,,,,,,,,,,,,,,49.71180419996381,None,['l'],0,[0.7573685999959707],49.666360300034285,None,,,,,,,,,,,,,,,,eba,001,2023_Mar_08_1745,stroop_task,3.2.3,60.234577501632266,
,n,"[1, 0.1, -1]",,,,,0,8,8,9,,,,,,,,,,,,,,,,,,,,,,,,50.49502729997039,None,['n'],0,[0.9077862000558525],50.444573199842125,None,,,,,,,,,,,,,,,,eba,001,2023_Mar_08_1745,stroop_task,3.2.3,60.234577501632266,
,v,"[-1, 0.04, -1]",,,,,0,9,9,20,,,,,,,,,,,,,,,,,,,,,,,,51.411165999947116,None,['v'],0,[1.1158433000091463],51.37764759990387,None,,,,,,,,,,,,,,,,eba,001,2023_Mar_08_1745,stroop_task,3.2.3,60.234577501632266,
,v,"[-1, 0.04, -1]",,,,,0,10,10,17,,,,,,,,,,,,,,,,,,,,,,,,52.54463539994322,None,['v'],0,[0.3569171999115497],52.51067789993249,None,,,,,,,,,,,,,,,,eba,001,2023_Mar_08_1745,stroop_task,3.2.3,60.234577501632266,
,n,"[1, 0.1, -1]",,,,,0,11,11,16,,,,,,,,,,,,,,,,,,,,,,,,52.94405849999748,None,['n'],0,[0.5042695000302047],52.89341599983163,None,,,,,,,,,,,,,,,,eba,001,2023_Mar_08_1745,stroop_task,3.2.3,60.234577501632266,
,v,"[-1, 0.04, -1]",,,,,0,12,12,25,,,,,,,,,,,,,,,,,,,,,,,,53.460891499882564,None,['v'],0,[0.6611160000320524],53.42713969992474,None,,,,,,,,,,,,,,,,eba,001,2023_Mar_08_1745,stroop_task,3.2.3,60.234577501632266,
,a,"[-1, -1, 1]",,,,,0,13,13,5,,,,,,,,,,,,,,,,,,,,,,,,54.1438847000245,None,['a'],0,[0.4999800000805408],54.11049839993939,None,,,,,,,,,,,,,,,,eba,001,2023_Mar_08_1745,stroop_task,3.2.3,60.234577501632266,
,v,"[-1, 0.04, -1]",,,,,0,14,14,22,,,,,,,,,,,,,,,,,,,,,,,,54.66069189994596,None,['v'],0,[0.5330578000284731],54.62630599993281,None,,,,,,,,,,,,,,,,eba,001,2023_Mar_08_1745,stroop_task,3.2.3,60.234577501632266,
,v,"[-1, 0.04, -1]",,,,,0,15,15,21,,,,,,,,,,,,,,,,,,,,,,,,55.21017559990287,None,['v'],0,[0.4041873998939991],55.176429299870506,None,,,,,,,,,,,,,,,,eba,001,2023_Mar_08_1745,stroop_task,3.2.3,60.234577501632266,
,a,"[-1, -1, 1]",,,,,0,16,16,1,,,,,,,,,,,,,,,,,,,,,,,,55.64341859985143,None,['a'],0,[0.5836497000418603],55.60970489983447,None,,,,,,,,,,,,,,,,eba,001,2023_Mar_08_1745,stroop_task,3.2.3,60.234577501632266,
,v,"[-1, 0.04, -1]",,,,,0,17,17,18,,,,,,,,,,,,,,,,,,,,,,,,56.24325259984471,None,['v'],0,[0.4941446001175791],56.209612499922514,None,,,,,,,,,,,,,,,,eba,001,2023_Mar_08_1745,stroop_task,3.2.3,60.234577501632266,
,a,"[-1, -1, 1]",,,,,0,18,18,2,,,,,,,,,,,,,,,,,,,,,,,,56.77676199981943,None,['a'],0,[0.6948325000703335],56.72582389996387,None,,,,,,,,,,,,,,,,eba,001,2023_Mar_08_1745,stroop_task,3.2.3,60.234577501632266,
,l,"[0.004, -1, 0.004]",,,,,0,19,19,34,,,,,,,,,,,,,,,,,,,,,,,,57.49221699987538,None,['l'],0,[0.5529118000995368],57.44620199990459,None,,,,,,,,,,,,,,,,eba,001,2023_Mar_08_1745,stroop_task,3.2.3,60.234577501632266,
,n,"[1, 0.1, -1]",,,,,0,20,20,14,,,,,,,,,,,,,,,,,,,,,,,,58.059026799863204,None,['n'],0,[0.445650199893862],58.02505029994063,None,,,,,,,,,,,,,,,,eba,001,2023_Mar_08_1745,stroop_task,3.2.3,60.234577501632266,
,l,"[0.004, -1, 0.004]",,,,,0,21,21,28,,,,,,,,,,,,,,,,,,,,,,,,58.5426747999154,None,['l'],0,[0.42416559997946024],58.49198489985429,None,,,,,,,,,,,,,,,,eba,001,2023_Mar_08_1745,stroop_task,3.2.3,60.234577501632266,
,v,"[-1, 0.04, -1]",,,,,0,22,22,23,,,,,,,,,,,,,,,,,,,,,,,,58.97609949996695,None,['v'],0,[0.7732383001130074],58.94178289989941,None,,,,,,,,,,,,,,,,eba,001,2023_Mar_08_1745,stroop_task,3.2.3,60.234577501632266,
,n,"[1, 0.1, -1]",,,,,0,23,23,12,,,,,,,,,,,,,,,,,,,,,,,,59.792032999917865,None,"['l', 'n']",0,"[0.630143899936229, 0.98115299991332]",59.74182110000402,None,,,,,,,,,,,,,,,,eba,001,2023_Mar_08_1745,stroop_task,3.2.3,60.234577501632266,
,n,"[1, 0.1, -1]",,,,,0,24,24,10,,,,,,,,,,,,,,,,,,,,,,,,60.79196419985965,None,['n'],0,[0.5594190999399871],60.74114119983278,None,,,,,,,,,,,,,,,,eba,001,2023_Mar_08_1745,stroop_task,3.2.3,60.234577501632266,
,l,"[0.004, -1, 0.004]",,,,,0,25,25,33,,,,,,,,,,,,,,,,,,,,,,,,61.357977099949494,None,['l'],0,[0.4722808999940753],61.324667299864814,None,,,,,,,,,,,,,,,,eba,001,2023_Mar_08_1745,stroop_task,3.2.3,60.234577501632266,
,a,"[-1, -1, 1]",,,,,0,26,26,4,,,,,,,,,,,,,,,,,,,,,,,,61.857804799918085,None,['a'],0,[0.5107446000911295],61.82454659999348,None,,,,,,,,,,,,,,,,eba,001,2023_Mar_08_1745,stroop_task,3.2.3,60.234577501632266,
,a,"[-1, -1, 1]",,,,,0,27,27,0,,,,,,,,,,,,,,,,,,,,,,,,62.40814549988136,None,['a'],0,[0.4985392999369651],62.35746989981271,None,,,,,,,,,,,,,,,,eba,001,2023_Mar_08_1745,stroop_task,3.2.3,60.234577501632266,
,v,"[-1, 0.04, -1]",,,,,0,28,28,19,,,,,,,,,,,,,,,,,,,,,,,,62.92376959999092,None,['v'],0,[0.6652201001998037],62.87337649986148,None,,,,,,,,,,,,,,,,eba,001,2023_Mar_08_1745,stroop_task,3.2.3,60.234577501632266,
,l,"[0.004, -1, 0.004]",,,,,0,29,29,30,,,,,,,,,,,,,,,,,,,,,,,,63.59071339992806,None,['l'],0,[0.6232853999827057],63.55673009995371,None,,,,,,,,,,,,,,,,eba,001,2023_Mar_08_1745,stroop_task,3.2.3,60.234577501632266,
,l,"[0.004, -1, 0.004]",,,,,0,30,30,29,,,,,,,,,,,,,,,,,,,,,,,,64.24027660000138,None,['l'],0,[0.4371973001398146],64.20642049983144,None,,,,,,,,,,,,,,,,eba,001,2023_Mar_08_1745,stroop_task,3.2.3,60.234577501632266,
,l,"[0.004, -1, 0.004]",,,,,0,31,31,32,,,,,,,,,,,,,,,,,,,,,,,,64.72393999993801,None,['l'],0,[0.45460389996878803],64.67334249988198,None,,,,,,,,,,,,,,,,eba,001,2023_Mar_08_1745,stroop_task,3.2.3,60.234577501632266,
,l,"[0.004, -1, 0.004]",,,,,0,32,32,27,,,,,,,,,,,,,,,,,,,,,,,,65.1899345999118,None,['l'],0,[0.6013227999210358],65.15658619999886,None,,,,,,,,,,,,,,,,eba,001,2023_Mar_08_1745,stroop_task,3.2.3,60.234577501632266,
,n,"[1, 0.1, -1]",,,,,0,33,33,15,,,,,,,,,,,,,,,,,,,,,,,,65.82342859986238,None,['n'],0,[0.7161636999808252],65.78914609993808,None,,,,,,,,,,,,,,,,eba,001,2023_Mar_08_1745,stroop_task,3.2.3,60.234577501632266,
,n,"[1, 0.1, -1]",,,,,0,34,34,8,,,,,,,,,,,,,,,,,,,,,,,,66.5565700000152,None,"['l', 'n']",0,"[0.4239306999370456, 0.7742871998343617]",66.52271920000203,None,,,,,,,,,,,,,,,,eba,001,2023_Mar_08_1745,stroop_task,3.2.3,60.234577501632266,
,,,,,,,,,,,,,,,,,,,,,,,,,,,,,,,,,,,,,,,,,67.3225501999259,None,space,5.217098300112411,72.304350099992,None,,,,,,,,,,eba,001,2023_Mar_08_1745,stroop_task,3.2.3,60.234577501632266,
azul,l,"[0.004, -1, 0.004]",,,,,,,,,0,0,0,28,,,,,,,,,,,,,,,,,,,,,,,,,,,,,,,,,77.60193159990013,None,['l'],0,[1.126119699794799],77.56059429980814,None,,,eba,001,2023_Mar_08_1745,stroop_task,3.2.3,60.234577501632266,
azul,l,"[0.004, -1, 0.004]",,,,,,,,,0,1,1,27,,,,,,,,,,,,,,,,,,,,,,,,,,,,,,,,,78.75168909993954,None,['l'],0,[0.7778201999608427],78.71843649982475,None,,,eba,001,2023_Mar_08_1745,stroop_task,3.2.3,60.234577501632266,
naranja,v,"[-1, 0.04, -1]",,,,,,,,,0,2,2,20,,,,,,,,,,,,,,,,,,,,,,,,,,,,,,,,,79.56842979998328,None,['v'],0,[1.341932199895382],79.53167449985631,None,,,eba,001,2023_Mar_08_1745,stroop_task,3.2.3,60.234577501632266,
naranja,a,"[-1, -1, 1]",,,,,,,,,0,3,3,3,,,,,,,,,,,,,,,,,,,,,,,,,,,,,,,,,80.93465379998088,None,['a'],0,[0.7012537000700831],80.90115699986927,None,,,eba,001,2023_Mar_08_1745,stroop_task,3.2.3,60.234577501632266,
lila,a,"[-1, -1, 1]",,,,,,,,,0,4,4,5,,,,,,,,,,,,,,,,,,,,,,,,,,,,,,,,,81.66763689997606,None,['a'],0,[0.8553105997852981],81.63436009990983,None,,,eba,001,2023_Mar_08_1745,stroop_task,3.2.3,60.234577501632266,
lila,v,"[-1, 0.04, -1]",,,,,,,,,0,5,5,23,,,,,,,,,,,,,,,,,,,,,,,,,,,,,,,,,82.55086409999058,None,['v'],0,[1.49870270001702],82.51708429981954,None,,,eba,001,2023_Mar_08_1745,stroop_task,3.2.3,60.234577501632266,
naranja,l,"[0.004, -1, 0.004]",,,,,,,,,0,6,6,32,,,,,,,,,,,,,,,,,,,,,,,,,,,,,,,,,84.08318039984442,None,['l'],0,[1.664564099861309],84.03317119996063,None,,,eba,001,2023_Mar_08_1745,stroop_task,3.2.3,60.234577501632266,
verde,l,"[0.004, -1, 0.004]",,,,,,,,,0,7,7,31,,,,,,,,,,,,,,,,,,,,,,,,,,,,,,,,,85.76565680000931,None,['l'],0,[0.8110108999535441],85.71594709996134,None,,,eba,001,2023_Mar_08_1745,stroop_task,3.2.3,60.234577501632266,
naranja,a,"[-1, -1, 1]",,,,,,,,,0,8,8,2,,,,,,,,,,,,,,,,,,,,,,,,,,,,,,,,,86.5990931999404,None,['a'],0,[1.1907618998084217],86.5496112999972,None,,,eba,001,2023_Mar_08_1745,stroop_task,3.2.3,60.234577501632266,
lila,v,"[-1, 0.04, -1]",,,,,,,,,0,9,9,25,,,,,,,,,,,,,,,,,,,,,,,,,,,,,,,,,87.81529299984686,None,['v'],0,[1.1819547999184579],87.76496970001608,None,,,eba,001,2023_Mar_08_1745,stroop_task,3.2.3,60.234577501632266,
naranja,a,"[-1, -1, 1]",,,,,,,,,0,10,10,4,,,,,,,,,,,,,,,,,,,,,,,,,,,,,,,,,89.01521479990333,None,['a'],0,[0.8211843001190573],88.97333909990266,None,,,eba,001,2023_Mar_08_1745,stroop_task,3.2.3,60.234577501632266,
naranja,v,"[-1, 0.04, -1]",,,,,,,,,0,11,11,22,,,,,,,,,,,,,,,,,,,,,,,,,,,,,,,,,89.8481593998149,None,['v'],0,[0.9320379998534918],89.81482329987921,None,,,eba,001,2023_Mar_08_1745,stroop_task,3.2.3,60.234577501632266,
verde,l,"[0.004, -1, 0.004]",,,,,,,,,0,12,12,29,,,,,,,,,,,,,,,,,,,,,,,,,,,,,,,,,90.81414549984038,None,['l'],0,[0.9943846999667585],90.7714245999232,None,,,eba,001,2023_Mar_08_1745,stroop_task,3.2.3,60.234577501632266,
azul,n,"[1, 0.1, -1]",,,,,,,,,0,13,13,9,,,,,,,,,,,,,,,,,,,,,,,,,,,,,,,,,91.84744819998741,None,['n'],0,[0.8602006998844445],91.80300710001029,None,,,eba,001,2023_Mar_08_1745,stroop_task,3.2.3,60.234577501632266,
naranja,l,"[0.004, -1, 0.004]",,,,,,,,,0,14,14,34,,,,,,,,,,,,,,,,,,,,,,,,,,,,,,,,,92.73029730003327,None,['l'],0,[0.8551648000720888],92.68025520001538,None,,,eba,001,2023_Mar_08_1745,stroop_task,3.2.3,60.234577501632266,
verde,n,"[1, 0.1, -1]",,,,,,,,,0,15,15,13,,,,,,,,,,,,,,,,,,,,,,,,,,,,,,,,,93.61306709982455,None,['n'],0,[0.966198300011456],93.57184999994934,None,,,eba,001,2023_Mar_08_1745,stroop_task,3.2.3,60.234577501632266,
lila,n,"[1, 0.1, -1]",,,,,,,,,0,16,16,16,,,,,,,,,,,,,,,,,,,,,,,,,,,,,,,,,94.61294849985279,None,['n'],0,[1.361881900113076],94.56646299990825,None,,,eba,001,2023_Mar_08_1745,stroop_task,3.2.3,60.234577501632266,
verde,a,"[-1, -1, 1]",,,,,,,,,0,17,17,1,,,,,,,,,,,,,,,,,,,,,,,,,,,,,,,,,95.99552999995649,None,['a'],0,[1.4255369999445975],95.94647830002941,None,,,eba,001,2023_Mar_08_1745,stroop_task,3.2.3,60.234577501632266,
verde,n,"[1, 0.1, -1]",,,,,,,,,0,18,18,12,,,,,,,,,,,,,,,,,,,,,,,,,,,,,,,,,97.42916029994376,None,['n'],0,[1.280456499895081],97.39557609986514,None,,,eba,001,2023_Mar_08_1745,stroop_task,3.2.3,60.234577501632266,
lila,v,"[-1, 0.04, -1]",,,,,,,,,0,19,19,24,,,,,,,,,,,,,,,,,,,,,,,,,,,,,,,,,98.72833699989133,None,['v'],0,[0.8682210000697523],98.7000569999218,None,,,eba,001,2023_Mar_08_1745,stroop_task,3.2.3,60.234577501632266,
naranja,v,"[-1, 0.04, -1]",,,,,,,,,0,20,20,21,,,,,,,,,,,,,,,,,,,,,,,,,,,,,,,,,99.64443459990434,None,['v'],0,[0.7046940000727773],99.5945967999287,None,,,eba,001,2023_Mar_08_1745,stroop_task,3.2.3,60.234577501632266,
verde,n,"[1, 0.1, -1]",,,,,,,,,0,21,21,11,,,,,,,,,,,,,,,,,,,,,,,,,,,,,,,,,100.37754589994438,None,['n'],0,[1.7437764001078904],100.33072119997814,None,,,eba,001,2023_Mar_08_1745,stroop_task,3.2.3,60.234577501632266,
lila,a,"[-1, -1, 1]",,,,,,,,,0,22,22,6,,,,,,,,,,,,,,,,,,,,,,,,,,,,,,,,,102.14369799988344,None,['a'],0,[0.9663726000580937],102.09511299990118,None,,,eba,001,2023_Mar_08_1745,stroop_task,3.2.3,60.234577501632266,
naranja,l,"[0.004, -1, 0.004]",,,,,,,,,0,23,23,33,,,,,,,,,,,,,,,,,,,,,,,,,,,,,,,,,103.12641759985127,None,['l'],0,[0.8021674000192434],103.08923069993034,None,,,eba,001,2023_Mar_08_1745,stroop_task,3.2.3,60.234577501632266,
azul,n,"[1, 0.1, -1]",,,,,,,,,0,24,24,8,,,,,,,,,,,,,,,,,,,,,,,,,,,,,,,,,103.9600422999356,None,['n'],0,[1.6491786998230964],103.92046009982005,None,,,eba,001,2023_Mar_08_1745,stroop_task,3.2.3,60.234577501632266,
lila,n,"[1, 0.1, -1]",,,,,,,,,0,25,25,15,,,,,,,,,,,,,,,,,,,,,,,,,,,,,,,,,105.64243799983524,None,['n'],0,[0.878903100034222],105.60352279990911,None,,,eba,001,2023_Mar_08_1745,stroop_task,3.2.3,60.234577501632266,
azul,v,"[-1, 0.04, -1]",,,,,,,,,0,26,26,17,,,,,,,,,,,,,,,,,,,,,,,,,,,,,,,,,106.55848949984647,None,['v'],0,[1.2302286000922322],106.51524599990807,None,,,eba,001,2023_Mar_08_1745,stroop_task,3.2.3,60.234577501632266,
azul,v,"[-1, 0.04, -1]",,,,,,,,,0,27,27,19,,,,,,,,,,,,,,,,,,,,,,,,,,,,,,,,,107.82571229990572,None,['v'],0,[1.0340636000037193],107.77539519988932,None,,,eba,001,2023_Mar_08_1745,stroop_task,3.2.3,60.234577501632266,
lila,n,"[1, 0.1, -1]",,,,,,,,,0,28,28,14,,,,,,,,,,,,,,,,,,,,,,,,,,,,,,,,,108.89128169999458,None,['n'],0,[1.3596160998567939],108.85129759996198,None,,,eba,001,2023_Mar_08_1745,stroop_task,3.2.3,60.234577501632266,
azul,v,"[-1, 0.04, -1]",,,,,,,,,0,29,29,18,,,,,,,,,,,,,,,,,,,,,,,,,,,,,,,,,110.2906665999908,None,['v'],0,[1.2344359001144767],110.25043829996139,None,,,eba,001,2023_Mar_08_1745,stroop_task,3.2.3,60.234577501632266,
lila,a,"[-1, -1, 1]",,,,,,,,,0,30,30,7,,,,,,,,,,,,,,,,,,,,,,,,,,,,,,,,,111.54007519991137,None,['a'],0,[1.2841030000708997],111.50695850001648,None,,,eba,001,2023_Mar_08_1745,stroop_task,3.2.3,60.234577501632266,
verde,a,"[-1, -1, 1]",,,,,,,,,0,31,31,0,,,,,,,,,,,,,,,,,,,,,,,,,,,,,,,,,112.85683639999479,None,['a'],0,[0.7013408001512289],112.80691619985737,None,,,eba,001,2023_Mar_08_1745,stroop_task,3.2.3,60.234577501632266,
azul,l,"[0.004, -1, 0.004]",,,,,,,,,0,32,32,26,,,,,,,,,,,,,,,,,,,,,,,,,,,,,,,,,113.59005989995785,None,['l'],0,[0.8375025999266654],113.5469776999671,None,,,eba,001,2023_Mar_08_1745,stroop_task,3.2.3,60.234577501632266,
verde,l,"[0.004, -1, 0.004]",,,,,,,,,0,33,33,30,,,,,,,,,,,,,,,,,,,,,,,,,,,,,,,,,114.4565196998883,None,['l'],0,[0.742512300144881],114.41265489999205,None,,,eba,001,2023_Mar_08_1745,stroop_task,3.2.3,60.234577501632266,
azul,n,"[1, 0.1, -1]",,,,,,,,,0,34,34,10,,,,,,,,,,,,,,,,,,,,,,,,,,,,,,,,,115.22268769983202,None,['n'],0,[1.041665099794045],115.17878789990209,None,,,eba,001,2023_Mar_08_1745,stroop_task,3.2.3,60.234577501632266,
,,,,,,,,,,,,,,,,,,,,,,,,,,,,,,,,,,,,,,,,,,,,,,,,,,,,,,116.23935609986074,None,,,,,,,
