texto;color;trials.thisRepN;trials.thisTrialN;trials.thisN;trials.thisIndex;trials_2.thisRepN;trials_2.thisTrialN;trials_2.thisN;trials_2.thisIndex;trials_3.thisRepN;trials_3.thisTrialN;trials_3.thisN;trials_3.thisIndex;Instrucciones_texto.started;Instrucciones_texto.stopped;key_resp.keys;key_resp.rt;key_resp.started;key_resp.stopped;colores1.started;colores1.stopped;respuesta.keys;respuesta.rt;respuesta.started;respuesta.stopped;text_intructionses2.started;text_intructionses2.stopped;key_resp_2.keys;key_resp_2.rt;key_resp_2.started;key_resp_2.stopped;rectangulo.started;rectangulo.stopped;respuesta_rect.keys;respuesta_rect.rt;respuesta_rect.started;respuesta_rect.stopped;text.started;text.stopped;key_resp_3.keys;key_resp_3.rt;key_resp_3.started;key_resp_3.stopped;colores2.started;colores2.stopped;respuesta_mix.keys;respuesta_mix.rt;respuesta_mix.started;respuesta_mix.stopped;despedida.started;despedida.stopped;participant;session;date;expName;psychopyVersion;frameRate
;;;;;;;;;;;;;;13.069.009.500.090.000;None;space;1.807.813.060.004.260;1.903.204.680.001.360;None;;;;;;;;;;;;;;;;;;;;;;;;;;;;;;;;;Ester;1;2023_Mar_07_1447;stroop_task;3.2.3;59.334.891.527.801.600
naranja;;0;0;0;11;;;;;;;;;;;;;;;3.724.495.769.990.600;None;n;13.826.194.000.430.400;3.719.938.730.006.100;None;;;;;;;;;;;;;;;;;;;;;;;;;;;Ester;1;2023_Mar_07_1447;stroop_task;3.2.3;59.334.891.527.801.600
azul;;0;1;1;4;;;;;;;;;;;;;;;38.658.961.300.039.600;None;a;0.9709842000156641;38.610.602.600.034.300;None;;;;;;;;;;;;;;;;;;;;;;;;;;;Ester;1;2023_Mar_07_1447;stroop_task;3.2.3;59.334.891.527.801.600
naranja;;0;2;2;15;;;;;;;;;;;;;;;396.583.690.000.698;None;n;0.6913100001402199;3.961.033.560.009.670;None;;;;;;;;;;;;;;;;;;;;;;;;;;;Ester;1;2023_Mar_07_1447;stroop_task;3.2.3;59.334.891.527.801.600
azul;;0;3;3;1;;;;;;;;;;;;;;;403.751.827.001.106;None;a;0.6306793000549078;4.032.718.069.991.090;None;;;;;;;;;;;;;;;;;;;;;;;;;;;Ester;1;2023_Mar_07_1447;stroop_task;3.2.3;59.334.891.527.801.600
naranja;;0;4;4;10;;;;;;;;;;;;;;;41.024.561.899.947;None;n;0.6299107999075204;4.097.675.510.006.950;None;;;;;;;;;;;;;;;;;;;;;;;;;;;Ester;1;2023_Mar_07_1447;stroop_task;3.2.3;59.334.891.527.801.600
verde;;0;5;5;24;;;;;;;;;;;;;;;4.167.418.779.991.560;None;v;0.69895080011338;4.162.690.689.996.810;None;;;;;;;;;;;;;;;;;;;;;;;;;;;Ester;1;2023_Mar_07_1447;stroop_task;3.2.3;59.334.891.527.801.600
azul;;0;6;6;0;;;;;;;;;;;;;;;42.390.737.700.043.200;None;a;0.7360171000473201;42.357.779.199.955.900;None;;;;;;;;;;;;;;;;;;;;;;;;;;;Ester;1;2023_Mar_07_1447;stroop_task;3.2.3;59.334.891.527.801.600
naranja;;0;7;7;16;;;;;;;;;;;;;;;4.317.377.260.001.370;None;n;1.160.011.600.004.500;4.312.556.009.995.750;None;;;;;;;;;;;;;;;;;;;;;;;;;;;Ester;1;2023_Mar_07_1447;stroop_task;3.2.3;59.334.891.527.801.600
azul;;0;8;8;3;;;;;;;;;;;;;;;44.356.980.399.927.100;None;a;0.6812828998081386;44.308.762.799.948.400;None;;;;;;;;;;;;;;;;;;;;;;;;;;;Ester;1;2023_Mar_07_1447;stroop_task;3.2.3;59.334.891.527.801.600
naranja;;0;9;9;17;;;;;;;;;;;;;;;45.056.840.300.094.300;None;n;0.6001601000316441;45.013.642.699.923.300;None;;;;;;;;;;;;;;;;;;;;;;;;;;;Ester;1;2023_Mar_07_1447;stroop_task;3.2.3;59.334.891.527.801.600
azul;;0;10;10;7;;;;;;;;;;;;;;;4.569.033.530.005.250;None;a;0.620429600123316;4.564.181.739.999.910;None;;;;;;;;;;;;;;;;;;;;;;;;;;;Ester;1;2023_Mar_07_1447;stroop_task;3.2.3;59.334.891.527.801.600
naranja;;0;11;11;18;;;;;;;;;;;;;;;4.633.997.679.990.710;None;n;0.6702798001933843;46.295.766.700.059.100;None;;;;;;;;;;;;;;;;;;;;;;;;;;;Ester;1;2023_Mar_07_1447;stroop_task;3.2.3;59.334.891.527.801.600
verde;;0;12;12;28;;;;;;;;;;;;;;;4.703.972.000.000.060;None;v;0.6793846001382917;4.699.147.040.001.110;None;;;;;;;;;;;;;;;;;;;;;;;;;;;Ester;1;2023_Mar_07_1447;stroop_task;3.2.3;59.334.891.527.801.600
verde;;0;13;13;20;;;;;;;;;;;;;;;4.772.392.209.991.810;None;v;0.5968551998957992;47.690.371.399.978.100;None;;;;;;;;;;;;;;;;;;;;;;;;;;;Ester;1;2023_Mar_07_1447;stroop_task;3.2.3;59.334.891.527.801.600
naranja;;0;14;14;14;;;;;;;;;;;;;;;4.835.631.279.996.590;None;n;0.6498932000249624;4.830.773.780.005.980;None;;;;;;;;;;;;;;;;;;;;;;;;;;;Ester;1;2023_Mar_07_1447;stroop_task;3.2.3;59.334.891.527.801.600
azul;;0;15;15;6;;;;;;;;;;;;;;;4.903.929.589.991.450;None;a;0.6064861000049859;4.899.116.749.991.660;None;;;;;;;;;;;;;;;;;;;;;;;;;;;Ester;1;2023_Mar_07_1447;stroop_task;3.2.3;59.334.891.527.801.600
verde;;0;16;16;26;;;;;;;;;;;;;;;4.967.218.520.003.370;None;v;14.464.155.999.012.200;4.962.428.450.002.330;None;;;;;;;;;;;;;;;;;;;;;;;;;;;Ester;1;2023_Mar_07_1447;stroop_task;3.2.3;59.334.891.527.801.600
verde;;0;17;17;23;;;;;;;;;;;;;;;511.226.659.999.229;None;v;0.644152499968186;5.108.957.690.000.530;None;;;;;;;;;;;;;;;;;;;;;;;;;;;Ester;1;2023_Mar_07_1447;stroop_task;3.2.3;59.334.891.527.801.600
verde;;0;18;18;25;;;;;;;;;;;;;;;5.178.826.910.001.220;None;v;0.570468100020662;5.175.523.600.005.540;None;;;;;;;;;;;;;;;;;;;;;;;;;;;Ester;1;2023_Mar_07_1447;stroop_task;3.2.3;59.334.891.527.801.600
naranja;;0;19;19;13;;;;;;;;;;;;;;;52.403.774.899.896.200;None;n;0.65078129991889;52.354.778.399.923.800;None;;;;;;;;;;;;;;;;;;;;;;;;;;;Ester;1;2023_Mar_07_1447;stroop_task;3.2.3;59.334.891.527.801.600
naranja;;0;20;20;9;;;;;;;;;;;;;;;5.305.450.009.997.000;None;n;0.6653926998842508;5.302.066.370.006.650;None;;;;;;;;;;;;;;;;;;;;;;;;;;;Ester;1;2023_Mar_07_1447;stroop_task;3.2.3;59.334.891.527.801.600
azul;;0;21;21;2;;;;;;;;;;;;;;;5.375.403.689.988.880;None;a;0.6041520000435412;5.370.550.459.995.860;None;;;;;;;;;;;;;;;;;;;;;;;;;;;Ester;1;2023_Mar_07_1447;stroop_task;3.2.3;59.334.891.527.801.600
verde;;0;22;22;22;;;;;;;;;;;;;;;54.387.394.400.080.600;None;v;0.9381794999353588;5.433.945.359.988.130;None;;;;;;;;;;;;;;;;;;;;;;;;;;;Ester;1;2023_Mar_07_1447;stroop_task;3.2.3;59.334.891.527.801.600
verde;;0;23;23;19;;;;;;;;;;;;;;;55.336.633.699.946.100;None;v;0.6222722998354584;5.530.334.790.004.410;None;;;;;;;;;;;;;;;;;;;;;;;;;;;Ester;1;2023_Mar_07_1447;stroop_task;3.2.3;59.334.891.527.801.600
azul;;0;24;24;5;;;;;;;;;;;;;;;5.598.654.430.010.350;None;a;0.8431518999859691;559.542.423.998.937;None;;;;;;;;;;;;;;;;;;;;;;;;;;;Ester;1;2023_Mar_07_1447;stroop_task;3.2.3;59.334.891.527.801.600
naranja;;0;25;25;12;;;;;;;;;;;;;;;5.685.591.230.005.950;None;n;0.7859982000663877;5.682.045.129.989.270;None;;;;;;;;;;;;;;;;;;;;;;;;;;;Ester;1;2023_Mar_07_1447;stroop_task;3.2.3;59.334.891.527.801.600
verde;;0;26;26;27;;;;;;;;;;;;;;;5.766.901.220.008.730;None;v;0.774542200146243;57.631.395.699.921.900;None;;;;;;;;;;;;;;;;;;;;;;;;;;;Ester;1;2023_Mar_07_1447;stroop_task;3.2.3;59.334.891.527.801.600
azul;;0;27;27;8;;;;;;;;;;;;;;;5.848.559.319.996.270;None;a;0.6162516998592764;5.843.735.560.006.460;None;;;;;;;;;;;;;;;;;;;;;;;;;;;Ester;1;2023_Mar_07_1447;stroop_task;3.2.3;59.334.891.527.801.600
verde;;0;28;28;21;;;;;;;;;;;;;;;59.119.080.499.978.700;None;v;0.5559628999326378;59.073.951.500.002.200;None;;;;;;;;;;;;;;;;;;;;;;;;;;;Ester;1;2023_Mar_07_1447;stroop_task;3.2.3;59.334.891.527.801.600
;;;;;;;;;;;;;;;;;;;;;;;;;;5.965.286.669.996.560;None;space;4.924.503.799.993.540;6.463.357.540.010.470;None;;;;;;;;;;;;;;;;;;;;;Ester;1;2023_Mar_07_1447;stroop_task;3.2.3;59.334.891.527.801.600
;[-1, 0.04, -1];;;;;0;0;0;21;;;;;;;;;;;;;;;;;;;;;;;6.963.156.059.989.700;None;v;14.379.121.002.275.400;6.958.377.910.009.580;None;;;;;;;;;;;;;;;Ester;1;2023_Mar_07_1447;stroop_task;3.2.3;59.334.891.527.801.600
;[-1, 0.04, -1];;;;;0;1;1;19;;;;;;;;;;;;;;;;;;;;;;;7.108.165.080.007.160;None;v;0.5811275001615286;7.104.883.789.992.890;None;;;;;;;;;;;;;;;Ester;1;2023_Mar_07_1447;stroop_task;3.2.3;59.334.891.527.801.600
;[-1, -1, 1];;;;;0;2;2;2;;;;;;;;;;;;;;;;;;;;;;;7.168.121.520.010.750;None;a;0.821789899840951;7.164.778.069.988.820;None;;;;;;;;;;;;;;;Ester;1;2023_Mar_07_1447;stroop_task;3.2.3;59.334.891.527.801.600
;[1, 0.1, -1];;;;;0;3;3;11;;;;;;;;;;;;;;;;;;;;;;;7.253.054.889.990.010;None;n;0.6446193000301719;7.249.746.600.002.980;None;;;;;;;;;;;;;;;Ester;1;2023_Mar_07_1447;stroop_task;3.2.3;59.334.891.527.801.600
;[1, 0.1, -1];;;;;0;4;4;15;;;;;;;;;;;;;;;;;;;;;;;7.319.837.450.003.250;None;n;0.728463200153783;7.316.557.410.010.130;None;;;;;;;;;;;;;;;Ester;1;2023_Mar_07_1447;stroop_task;3.2.3;59.334.891.527.801.600
;[-1, 0.04, -1];;;;;0;5;5;25;;;;;;;;;;;;;;;;;;;;;;;7.394.757.739.990.010;None;v;1.179.505.200.125.270;7.391.537.060.006.520;None;;;;;;;;;;;;;;;Ester;1;2023_Mar_07_1447;stroop_task;3.2.3;59.334.891.527.801.600
;[-1, -1, 1];;;;;0;6;6;8;;;;;;;;;;;;;;;;;;;;;;;7.514.678.659.988.560;None;a;0.6284793999511749;7.511.338.709.993.280;None;;;;;;;;;;;;;;;Ester;1;2023_Mar_07_1447;stroop_task;3.2.3;59.334.891.527.801.600
;[1, 0.1, -1];;;;;0;7;7;17;;;;;;;;;;;;;;;;;;;;;;;757.975.874.999.538;None;n;0.6164724000263959;7.576.534.439.995.880;None;;;;;;;;;;;;;;;Ester;1;2023_Mar_07_1447;stroop_task;3.2.3;59.334.891.527.801.600
;[-1, -1, 1];;;;;0;8;8;3;;;;;;;;;;;;;;;;;;;;;;;7.643.022.660.003.040;None;a;0.9524638000875711;763.973.471.999.634;None;;;;;;;;;;;;;;;Ester;1;2023_Mar_07_1447;stroop_task;3.2.3;59.334.891.527.801.600
;[-1, 0.04, -1];;;;;0;9;9;28;;;;;;;;;;;;;;;;;;;;;;;7.741.265.029.995.700;None;v;0.6105168999638408;7.737.937.820.004.290;None;;;;;;;;;;;;;;;Ester;1;2023_Mar_07_1447;stroop_task;3.2.3;59.334.891.527.801.600
;[-1, 0.04, -1];;;;;0;10;10;20;;;;;;;;;;;;;;;;;;;;;;;7.804.609.870.002.600;None;v;0.5924571000505239;7.801.337.549.998.420;None;;;;;;;;;;;;;;;Ester;1;2023_Mar_07_1447;stroop_task;3.2.3;59.334.891.527.801.600
;[1, 0.1, -1];;;;;0;11;11;12;;;;;;;;;;;;;;;;;;;;;;;7.866.301.369.993.010;None;n;0.5684263000730425;786.301.355.001.051;None;;;;;;;;;;;;;;;Ester;1;2023_Mar_07_1447;stroop_task;3.2.3;59.334.891.527.801.600
;[-1, 0.04, -1];;;;;0;12;12;27;;;;;;;;;;;;;;;;;;;;;;;7.926.297.529.996.370;None;v;0.7677264001686126;7.922.975.059.994.490;None;;;;;;;;;;;;;;;Ester;1;2023_Mar_07_1447;stroop_task;3.2.3;59.334.891.527.801.600
;[1, 0.1, -1];;;;;0;13;13;18;;;;;;;;;;;;;;;;;;;;;;;8.006.141.519.988.880;None;n;0.6339513000566512;800.281.585.000.921;None;;;;;;;;;;;;;;;Ester;1;2023_Mar_07_1447;stroop_task;3.2.3;59.334.891.527.801.600
;[1, 0.1, -1];;;;;0;14;14;16;;;;;;;;;;;;;;;;;;;;;;;8.071.182.450.000.190;None;n;0.6798549999948591;8.067.928.360.006.770;None;;;;;;;;;;;;;;;Ester;1;2023_Mar_07_1447;stroop_task;3.2.3;59.334.891.527.801.600
;[1, 0.1, -1];;;;;0;15;15;10;;;;;;;;;;;;;;;;;;;;;;;8.141.128.339.990.970;None;n;0.7493497999384999;8.137.807.419.989.250;None;;;;;;;;;;;;;;;Ester;1;2023_Mar_07_1447;stroop_task;3.2.3;59.334.891.527.801.600
;[-1, 0.04, -1];;;;;0;16;16;26;;;;;;;;;;;;;;;;;;;;;;;8.217.819.459.992.460;None;v;12.510.397.001.169.600;8.214.661.439.997.140;None;;;;;;;;;;;;;;;Ester;1;2023_Mar_07_1447;stroop_task;3.2.3;59.334.891.527.801.600
;[-1, -1, 1];;;;;0;17;17;7;;;;;;;;;;;;;;;;;;;;;;;8.346.109.539.992.170;None;a;0.658064299961552;8.342.785.249.999.720;None;;;;;;;;;;;;;;;Ester;1;2023_Mar_07_1447;stroop_task;3.2.3;59.334.891.527.801.600
;[1, 0.1, -1];;;;;0;18;18;14;;;;;;;;;;;;;;;;;;;;;;;8.414.504.160.010.250;None;n;0.6530319000594318;841.127.722.999.081;None;;;;;;;;;;;;;;;Ester;1;2023_Mar_07_1447;stroop_task;3.2.3;59.334.891.527.801.600
;[-1, -1, 1];;;;;0;19;19;4;;;;;;;;;;;;;;;;;;;;;;;8.482.624.779.990.870;None;a;0.7009361998643726;8.479.295.419.994.740;None;;;;;;;;;;;;;;;Ester;1;2023_Mar_07_1447;stroop_task;3.2.3;59.334.891.527.801.600
;[-1, -1, 1];;;;;0;20;20;1;;;;;;;;;;;;;;;;;;;;;;;8.554.325.139.988.210;None;a;0.6399775000754744;8.550.971.850.007.770;None;;;;;;;;;;;;;;;Ester;1;2023_Mar_07_1447;stroop_task;3.2.3;59.334.891.527.801.600
;[-1, 0.04, -1];;;;;0;21;21;23;;;;;;;;;;;;;;;;;;;;;;;8.620.886.519.993.650;None;v;0.6936546000652015;8.617.582.620.005.120;None;;;;;;;;;;;;;;;Ester;1;2023_Mar_07_1447;stroop_task;3.2.3;59.334.891.527.801.600
;[-1, 0.04, -1];;;;;0;22;22;24;;;;;;;;;;;;;;;;;;;;;;;8.692.588.489.991.610;None;v;0.6257607000879943;8.689.219.620.008.950;None;;;;;;;;;;;;;;;Ester;1;2023_Mar_07_1447;stroop_task;3.2.3;59.334.891.527.801.600
;[1, 0.1, -1];;;;;0;23;23;13;;;;;;;;;;;;;;;;;;;;;;;8.757.584.149.995.810;None;n;0.5998339999932796;875.420.349.999.331;None;;;;;;;;;;;;;;;Ester;1;2023_Mar_07_1447;stroop_task;3.2.3;59.334.891.527.801.600
;[-1, -1, 1];;;;;0;24;24;5;;;;;;;;;;;;;;;;;;;;;;;881.938.352.000.434;None;a;0.8309700000099838;8.815.966.170.001.770;None;;;;;;;;;;;;;;;Ester;1;2023_Mar_07_1447;stroop_task;3.2.3;59.334.891.527.801.600
;[1, 0.1, -1];;;;;0;25;25;9;;;;;;;;;;;;;;;;;;;;;;;8.904.168.620.007.110;None;n;0.9011615999042988;89.008.728.899.993;None;;;;;;;;;;;;;;;Ester;1;2023_Mar_07_1447;stroop_task;3.2.3;59.334.891.527.801.600
;[-1, -1, 1];;;;;0;26;26;6;;;;;;;;;;;;;;;;;;;;;;;8.997.470.859.996.970;None;a;0.9128632000647485;8.994.146.030.000.410;None;;;;;;;;;;;;;;;Ester;1;2023_Mar_07_1447;stroop_task;3.2.3;59.334.891.527.801.600
;[-1, -1, 1];;;;;0;27;27;0;;;;;;;;;;;;;;;;;;;;;;;9.090.894.449.991.170;None;a;0.6565274000167847;9.087.731.750.006.780;None;;;;;;;;;;;;;;;Ester;1;2023_Mar_07_1447;stroop_task;3.2.3;59.334.891.527.801.600
;[-1, 0.04, -1];;;;;0;28;28;22;;;;;;;;;;;;;;;;;;;;;;;9.159.127.389.988.860;None;v;0.5923266999889165;9.155.763.370.008.200;None;;;;;;;;;;;;;;;Ester;1;2023_Mar_07_1447;stroop_task;3.2.3;59.334.891.527.801.600
;;;;;;;;;;;;;;;;;;;;;;;;;;;;;;;;;;;;;;9.217.532.999.999.820;None;space;28.009.323.000.442.200;971.568.108.999.636;None;;;;;;;;;Ester;1;2023_Mar_07_1447;stroop_task;3.2.3;59.334.891.527.801.600
naranja;[-1, -1, 1];;;;;;;;;0;0;0;7;;;;;;;;;;;;;;;;;;;;;;;;;;;;;;;10.003.811.519.988.800;None;a;0.6860039001330733;10.000.217.300.001.500;None;;;Ester;1;2023_Mar_07_1447;stroop_task;3.2.3;59.334.891.527.801.600
azul;[-1, 0.04, -1];;;;;;;;;0;1;1;22;;;;;;;;;;;;;;;;;;;;;;;;;;;;;;;10.075.393.899.995.800;None;v;0.7273115001153201;1.007.105.260.998.940;None;;;Ester;1;2023_Mar_07_1447;stroop_task;3.2.3;59.334.891.527.801.600
azul;[-1, 0.04, -1];;;;;;;;;0;2;2;19;;;;;;;;;;;;;;;;;;;;;;;;;;;;;;;10.148.807.929.991.700;None;v;0.7263106999453157;10.145.558.480.010.300;None;;;Ester;1;2023_Mar_07_1447;stroop_task;3.2.3;59.334.891.527.801.600
verde;[1, 0.1, -1];;;;;;;;;0;3;3;10;;;;;;;;;;;;;;;;;;;;;;;;;;;;;;;10.225.437.540.002.100;None;n;0.7119947001338005;10.220.781.740.010.700;None;;;Ester;1;2023_Mar_07_1447;stroop_task;3.2.3;59.334.891.527.801.600
verde;[-1, -1, 1];;;;;;;;;0;4;4;1;;;;;;;;;;;;;;;;;;;;;;;;;;;;;;;10.297.064.170.008.500;None;a;12.045.009.001.158.100;10.293.717.420.008.000;None;;;Ester;1;2023_Mar_07_1447;stroop_task;3.2.3;59.334.891.527.801.600
azul;[1, 0.1, -1];;;;;;;;;0;5;5;18;;;;;;;;;;;;;;;;;;;;;;;;;;;;;;;10.420.305.099.990.200;None;n;15.959.089.000.243.600;10.417.141.789.989.500;None;;;Ester;1;2023_Mar_07_1447;stroop_task;3.2.3;59.334.891.527.801.600
naranja;[-1, 0.04, -1];;;;;;;;;0;6;6;26;;;;;;;;;;;;;;;;;;;;;;;;;;;;;;;10.583.615.830.005.100;None;v;0.73066720017232;10.578.783.289.995.000;None;;;Ester;1;2023_Mar_07_1447;stroop_task;3.2.3;59.334.891.527.801.600
naranja;[-1, -1, 1];;;;;;;;;0;7;7;8;;;;;;;;;;;;;;;;;;;;;;;;;;;;;;;10.656.893.320.009.100;None;a;0.7338566998951137;1.065.357.405.000.830;None;;;Ester;1;2023_Mar_07_1447;stroop_task;3.2.3;59.334.891.527.801.600
naranja;[-1, -1, 1];;;;;;;;;0;8;8;6;;;;;;;;;;;;;;;;;;;;;;;;;;;;;;;1.073.190.735.001.110;None;a;0.6884477999992669;1.072.856.207.001.020;None;;;Ester;1;2023_Mar_07_1447;stroop_task;3.2.3;59.334.891.527.801.600
verde;[1, 0.1, -1];;;;;;;;;0;9;9;13;;;;;;;;;;;;;;;;;;;;;;;;;;;;;;;10.805.188.290.006.400;None;n;0.6281004999764264;10.800.944.370.008.000;None;;;Ester;1;2023_Mar_07_1447;stroop_task;3.2.3;59.334.891.527.801.600
naranja;[-1, 0.04, -1];;;;;;;;;0;10;10;25;;;;;;;;;;;;;;;;;;;;;;;;;;;;;;;10.871.904.679.993.100;None;v;0.6477868999354541;10.867.066.660.011.100;None;;;Ester;1;2023_Mar_07_1447;stroop_task;3.2.3;59.334.891.527.801.600
verde;[-1, -1, 1];;;;;;;;;0;11;11;0;;;;;;;;;;;;;;;;;;;;;;;;;;;;;;;10.938.449.060.008.800;None;a;0.7014623999129981;10.934.426.599.997.000;None;;;Ester;1;2023_Mar_07_1447;stroop_task;3.2.3;59.334.891.527.801.600
verde;[-1, -1, 1];;;;;;;;;0;12;12;3;;;;;;;;;;;;;;;;;;;;;;;;;;;;;;;1.101.019.458.998.920;None;a;0.5766294999048114;11.006.896.549.998.700;None;;;Ester;1;2023_Mar_07_1447;stroop_task;3.2.3;59.334.891.527.801.600
azul;[1, 0.1, -1];;;;;;;;;0;13;13;17;;;;;;;;;;;;;;;;;;;;;;;;;;;;;;;11.070.133.899.990.400;None;n;0.6819412000477314;11.066.806.589.998.300;None;;;Ester;1;2023_Mar_07_1447;stroop_task;3.2.3;59.334.891.527.801.600
verde;[1, 0.1, -1];;;;;;;;;0;14;14;11;;;;;;;;;;;;;;;;;;;;;;;;;;;;;;;11.141.834.790.003.400;None;n;0.6015548000577837;11.138.143.609.999.600;None;;;Ester;1;2023_Mar_07_1447;stroop_task;3.2.3;59.334.891.527.801.600
naranja;[-1, 0.04, -1];;;;;;;;;0;15;15;24;;;;;;;;;;;;;;;;;;;;;;;;;;;;;;;11.206.748.989.992.700;None;v;0.6859829998575151;11.200.778.299.989.100;None;;;Ester;1;2023_Mar_07_1447;stroop_task;3.2.3;59.334.891.527.801.600
naranja;[-1, 0.04, -1];;;;;;;;;0;16;16;28;;;;;;;;;;;;;;;;;;;;;;;;;;;;;;;11.275.165.829.993.700;None;v;0.5429965001530945;11.271.871.450.007.800;None;;;Ester;1;2023_Mar_07_1447;stroop_task;3.2.3;59.334.891.527.801.600
azul;[-1, 0.04, -1];;;;;;;;;0;17;17;20;;;;;;;;;;;;;;;;;;;;;;;;;;;;;;;11.333.352.129.999.500;None;v;0.7035052001010627;11.328.612.009.994.600;None;;;Ester;1;2023_Mar_07_1447;stroop_task;3.2.3;59.334.891.527.801.600
naranja;[-1, 0.04, -1];;;;;;;;;0;18;18;27;;;;;;;;;;;;;;;;;;;;;;;;;;;;;;;114.066.840.399.988;None;v;0.5958761000074446;11.401.935.749.989.900;None;;;Ester;1;2023_Mar_07_1447;stroop_task;3.2.3;59.334.891.527.801.600
verde;[1, 0.1, -1];;;;;;;;;0;19;19;9;;;;;;;;;;;;;;;;;;;;;;;;;;;;;;;114.683.527.499.903;None;n;0.6080748999956995;11.463.802.190.008.500;None;;;Ester;1;2023_Mar_07_1447;stroop_task;3.2.3;59.334.891.527.801.600
azul;[-1, 0.04, -1];;;;;;;;;0;20;20;23;;;;;;;;;;;;;;;;;;;;;;;;;;;;;;;1.153.158.958.000.130;None;v;0.553503500064835;1.152.680.858.001.110;None;;;Ester;1;2023_Mar_07_1447;stroop_task;3.2.3;59.334.891.527.801.600
azul;[1, 0.1, -1];;;;;;;;;0;21;21;14;;;;;;;;;;;;;;;;;;;;;;;;;;;;;;;11.588.267.399.999.300;None;n;0.90820789989084;11.584.964.870.009.500;None;;;Ester;1;2023_Mar_07_1447;stroop_task;3.2.3;59.334.891.527.801.600
azul;[-1, 0.04, -1];;;;;;;;;0;22;22;21;;;;;;;;;;;;;;;;;;;;;;;;;;;;;;;11.681.617.489.992.600;None;v;0.7417041999287903;11.678.387.619.997.300;None;;;Ester;1;2023_Mar_07_1447;stroop_task;3.2.3;59.334.891.527.801.600
azul;[1, 0.1, -1];;;;;;;;;0;23;23;16;;;;;;;;;;;;;;;;;;;;;;;;;;;;;;;11.758.207.049.989.100;None;n;0.6574653000570834;11.754.849.889.990.800;None;;;Ester;1;2023_Mar_07_1447;stroop_task;3.2.3;59.334.891.527.801.600
verde;[1, 0.1, -1];;;;;;;;;0;24;24;12;;;;;;;;;;;;;;;;;;;;;;;;;;;;;;;11.828.173.599.997.500;None;n;0.6204201001673937;11.823.325.169.994.400;None;;;Ester;1;2023_Mar_07_1447;stroop_task;3.2.3;59.334.891.527.801.600
naranja;[-1, -1, 1];;;;;;;;;0;25;25;5;;;;;;;;;;;;;;;;;;;;;;;;;;;;;;;11.893.235.439.993.400;None;a;0.6541114000137895;11.888.768.450.007.700;None;;;Ester;1;2023_Mar_07_1447;stroop_task;3.2.3;59.334.891.527.801.600
azul;[1, 0.1, -1];;;;;;;;;0;26;26;15;;;;;;;;;;;;;;;;;;;;;;;;;;;;;;;1.195.980.974.000.410;None;n;11.210.694.001.056.200;11.956.502.939.993.500;None;;;Ester;1;2023_Mar_07_1447;stroop_task;3.2.3;59.334.891.527.801.600
verde;[-1, -1, 1];;;;;;;;;0;27;27;2;;;;;;;;;;;;;;;;;;;;;;;;;;;;;;;12.076.479.130.005.400;None;a;0.9515944998711348;12.071.822.330.006.300;None;;;Ester;1;2023_Mar_07_1447;stroop_task;3.2.3;59.334.891.527.801.600
naranja;[-1, -1, 1];;;;;;;;;0;28;28;4;;;;;;;;;;;;;;;;;;;;;;;;;;;;;;;12.173.058.680.002.500;None;a;0.5872655999846756;12.169.850.110.006.500;None;;;Ester;1;2023_Mar_07_1447;stroop_task;3.2.3;59.334.891.527.801.600
;;;;;;;;;;;;;;;;;;;;;;;;;;;;;;;;;;;;;;;;;;;;;;;;;;12.231.379.100.005.100;None;;;;;;
