texto,answer,color,trials.thisRepN,trials.thisTrialN,trials.thisN,trials.thisIndex,trials_2.thisRepN,trials_2.thisTrialN,trials_2.thisN,trials_2.thisIndex,trials_3.thisRepN,trials_3.thisTrialN,trials_3.thisN,trials_3.thisIndex,Instrucciones_texto.started,Instrucciones_texto.stopped,key_resp.keys,key_resp.rt,key_resp.started,key_resp.stopped,colores1.started,colores1.stopped,respuesta.keys,respuesta.corr,respuesta.rt,respuesta.started,respuesta.stopped,text_intructionses2.started,text_intructionses2.stopped,key_resp_2.keys,key_resp_2.rt,key_resp_2.started,key_resp_2.stopped,rectangulo.started,rectangulo.stopped,respuesta_rect.keys,respuesta_rect.corr,respuesta_rect.rt,respuesta_rect.started,respuesta_rect.stopped,text.started,text.stopped,key_resp_3.keys,key_resp_3.rt,key_resp_3.started,key_resp_3.stopped,colores2.started,colores2.stopped,respuesta_mix.keys,respuesta_mix.corr,respuesta_mix.rt,respuesta_mix.started,respuesta_mix.stopped,despedida.started,despedida.stopped,participant,session,date,expName,psychopyVersion,frameRate,
,,,,,,,,,,,,,,,18.024039900000048,None,space,0.15340609999998378,23.965656400000057,None,,,,,,,,,,,,,,,,,,,,,,,,,,,,,,,,,,,,davidson,001,2023_Nov_04_1032,stroop_task,3.2.3,60.60246118715113,
verde,v,,0,0,0,25,,,,,,,,,,,,,,,24.349138400000015,None,['v'],0,[1.1765067000000045],24.302085000000034,None,,,,,,,,,,,,,,,,,,,,,,,,,,,,,davidson,001,2023_Nov_04_1032,stroop_task,3.2.3,60.60246118715113,
azul,a,,0,1,1,0,,,,,,,,,,,,,,,25.550191900000073,None,['a'],0,[0.6549348999999438],25.50383970000007,None,,,,,,,,,,,,,,,,,,,,,,,,,,,,,davidson,001,2023_Nov_04_1032,stroop_task,3.2.3,60.60246118715113,
lila,l,,0,2,2,29,,,,,,,,,,,,,,,26.234238600000026,None,['l'],0,[0.6116819999999734],26.189209100000085,None,,,,,,,,,,,,,,,,,,,,,,,,,,,,,davidson,001,2023_Nov_04_1032,stroop_task,3.2.3,60.60246118715113,
naranja,n,,0,3,3,12,,,,,,,,,,,,,,,26.886396800000057,None,['n'],0,[0.5642275000000154],26.834793999999988,None,,,,,,,,,,,,,,,,,,,,,,,,,,,,,davidson,001,2023_Nov_04_1032,stroop_task,3.2.3,60.60246118715113,
lila,l,,0,4,4,28,,,,,,,,,,,,,,,27.48568369999998,None,['l'],0,[0.545234399999913],27.437344900000085,None,,,,,,,,,,,,,,,,,,,,,,,,,,,,,davidson,001,2023_Nov_04_1032,stroop_task,3.2.3,60.60246118715113,
naranja,n,,0,5,5,14,,,,,,,,,,,,,,,28.05427430000009,None,['n'],0,[0.4525808999999299],28.018510600000013,None,,,,,,,,,,,,,,,,,,,,,,,,,,,,,davidson,001,2023_Nov_04_1032,stroop_task,3.2.3,60.60246118715113,
lila,l,,0,6,6,32,,,,,,,,,,,,,,,28.53677390000007,None,['l'],0,[0.7043440999999575],28.494099900000037,None,,,,,,,,,,,,,,,,,,,,,,,,,,,,,davidson,001,2023_Nov_04_1032,stroop_task,3.2.3,60.60246118715113,
naranja,n,,0,7,7,15,,,,,,,,,,,,,,,29.287842400000045,None,['n'],0,[0.43609779999997045],29.23565730000007,None,,,,,,,,,,,,,,,,,,,,,,,,,,,,,davidson,001,2023_Nov_04_1032,stroop_task,3.2.3,60.60246118715113,
lila,l,,0,8,8,30,,,,,,,,,,,,,,,29.754539099999988,None,['l'],0,[0.49554280000006656],29.703513900000075,None,,,,,,,,,,,,,,,,,,,,,,,,,,,,,davidson,001,2023_Nov_04_1032,stroop_task,3.2.3,60.60246118715113,
verde,v,,0,9,9,20,,,,,,,,,,,,,,,30.273737200000028,None,"['a', 'v']",0,"[0.8945221999999831, 1.0548937999999453]",30.23220660000004,None,,,,,,,,,,,,,,,,,,,,,,,,,,,,,davidson,001,2023_Nov_04_1032,stroop_task,3.2.3,60.60246118715113,
verde,v,,0,10,10,18,,,,,,,,,,,,,,,31.339376700000003,None,['v'],0,[0.45306090000008226],31.30599810000001,None,,,,,,,,,,,,,,,,,,,,,,,,,,,,,davidson,001,2023_Nov_04_1032,stroop_task,3.2.3,60.60246118715113,
azul,a,,0,11,11,1,,,,,,,,,,,,,,,31.84128720000001,None,['a'],0,[0.5434991999999284],31.79079360000003,None,,,,,,,,,,,,,,,,,,,,,,,,,,,,,davidson,001,2023_Nov_04_1032,stroop_task,3.2.3,60.60246118715113,
lila,l,,0,12,12,34,,,,,,,,,,,,,,,32.42581920000009,None,['l'],0,[0.6596908000000212],32.37232640000002,None,,,,,,,,,,,,,,,,,,,,,,,,,,,,,davidson,001,2023_Nov_04_1032,stroop_task,3.2.3,60.60246118715113,
lila,l,,0,13,13,26,,,,,,,,,,,,,,,33.09254490000001,None,['l'],0,[1.4694882000000007],33.05779000000007,None,,,,,,,,,,,,,,,,,,,,,,,,,,,,,davidson,001,2023_Nov_04_1032,stroop_task,3.2.3,60.60246118715113,
naranja,n,,0,14,14,10,,,,,,,,,,,,,,,34.592837200000076,None,['n'],0,[0.9245546000000786],34.54604200000006,None,,,,,,,,,,,,,,,,,,,,,,,,,,,,,davidson,001,2023_Nov_04_1032,stroop_task,3.2.3,60.60246118715113,
lila,l,,0,15,15,27,,,,,,,,,,,,,,,35.545552600000065,None,['l'],0,[0.7097920999999587],35.5046327,None,,,,,,,,,,,,,,,,,,,,,,,,,,,,,davidson,001,2023_Nov_04_1032,stroop_task,3.2.3,60.60246118715113,
lila,l,,0,16,16,31,,,,,,,,,,,,,,,36.27954890000001,None,['l'],0,[0.48371020000001863],36.244412200000056,None,,,,,,,,,,,,,,,,,,,,,,,,,,,,,davidson,001,2023_Nov_04_1032,stroop_task,3.2.3,60.60246118715113,
verde,v,,0,17,17,24,,,,,,,,,,,,,,,36.79575030000001,None,['v'],0,[0.9320399999999154],36.75552490000007,None,,,,,,,,,,,,,,,,,,,,,,,,,,,,,davidson,001,2023_Nov_04_1032,stroop_task,3.2.3,60.60246118715113,
azul,a,,0,18,18,7,,,,,,,,,,,,,,,37.76243790000001,None,['a'],0,[0.572518500000001],37.730158500000016,None,,,,,,,,,,,,,,,,,,,,,,,,,,,,,davidson,001,2023_Nov_04_1032,stroop_task,3.2.3,60.60246118715113,
verde,v,,0,19,19,17,,,,,,,,,,,,,,,38.37992110000005,None,['v'],0,[0.6695864000000711],38.32969109999999,None,,,,,,,,,,,,,,,,,,,,,,,,,,,,,davidson,001,2023_Nov_04_1032,stroop_task,3.2.3,60.60246118715113,
naranja,n,,0,20,20,16,,,,,,,,,,,,,,,39.063888099999986,None,['n'],0,[0.6929325999999492],39.018301000000065,None,,,,,,,,,,,,,,,,,,,,,,,,,,,,,davidson,001,2023_Nov_04_1032,stroop_task,3.2.3,60.60246118715113,
lila,l,,0,21,21,33,,,,,,,,,,,,,,,39.78159370000003,None,"['v', 'l']",0,"[0.522114800000054, 0.9873419000000467]",39.73241970000004,None,,,,,,,,,,,,,,,,,,,,,,,,,,,,,davidson,001,2023_Nov_04_1032,stroop_task,3.2.3,60.60246118715113,
verde,v,,0,22,22,22,,,,,,,,,,,,,,,40.799043900000015,None,['v'],0,[1.3603484999999864],40.75024260000009,None,,,,,,,,,,,,,,,,,,,,,,,,,,,,,davidson,001,2023_Nov_04_1032,stroop_task,3.2.3,60.60246118715113,
naranja,n,,0,23,23,11,,,,,,,,,,,,,,,42.18359090000001,None,['n'],0,[1.079646499999967],42.13481520000005,None,,,,,,,,,,,,,,,,,,,,,,,,,,,,,davidson,001,2023_Nov_04_1032,stroop_task,3.2.3,60.60246118715113,
naranja,n,,0,24,24,8,,,,,,,,,,,,,,,43.268082700000036,None,['n'],0,[0.378555399999982],43.235962900000004,None,,,,,,,,,,,,,,,,,,,,,,,,,,,,,davidson,001,2023_Nov_04_1032,stroop_task,3.2.3,60.60246118715113,
azul,a,,0,25,25,5,,,,,,,,,,,,,,,43.686423500000046,None,['a'],0,[0.6163242000000082],43.647465200000056,None,,,,,,,,,,,,,,,,,,,,,,,,,,,,,davidson,001,2023_Nov_04_1032,stroop_task,3.2.3,60.60246118715113,
azul,a,,0,26,26,3,,,,,,,,,,,,,,,44.32110190000003,None,['a'],0,[0.4659706999999571],44.2858688,None,,,,,,,,,,,,,,,,,,,,,,,,,,,,,davidson,001,2023_Nov_04_1032,stroop_task,3.2.3,60.60246118715113,
naranja,n,,0,27,27,9,,,,,,,,,,,,,,,44.82006540000009,None,['n'],0,[0.6314500999999382],44.784604400000035,None,,,,,,,,,,,,,,,,,,,,,,,,,,,,,davidson,001,2023_Nov_04_1032,stroop_task,3.2.3,60.60246118715113,
naranja,n,,0,28,28,13,,,,,,,,,,,,,,,45.470718300000044,None,['n'],0,[0.4823271999999861],45.437021800000025,None,,,,,,,,,,,,,,,,,,,,,,,,,,,,,davidson,001,2023_Nov_04_1032,stroop_task,3.2.3,60.60246118715113,
azul,a,,0,29,29,6,,,,,,,,,,,,,,,45.98748760000001,None,['a'],0,[0.5418866999999636],45.94466440000008,None,,,,,,,,,,,,,,,,,,,,,,,,,,,,,davidson,001,2023_Nov_04_1032,stroop_task,3.2.3,60.60246118715113,
verde,v,,0,30,30,23,,,,,,,,,,,,,,,46.572123900000065,None,['v'],0,[0.6133820999999671],46.52116990000002,None,,,,,,,,,,,,,,,,,,,,,,,,,,,,,davidson,001,2023_Nov_04_1032,stroop_task,3.2.3,60.60246118715113,
azul,a,,0,31,31,2,,,,,,,,,,,,,,,47.18867650000004,None,['a'],0,[0.6908061999999973],47.156993700000044,None,,,,,,,,,,,,,,,,,,,,,,,,,,,,,davidson,001,2023_Nov_04_1032,stroop_task,3.2.3,60.60246118715113,
verde,v,,0,32,32,21,,,,,,,,,,,,,,,47.922848900000076,None,['v'],0,[0.6470513000000437],47.879568600000084,None,,,,,,,,,,,,,,,,,,,,,,,,,,,,,davidson,001,2023_Nov_04_1032,stroop_task,3.2.3,60.60246118715113,
verde,v,,0,33,33,19,,,,,,,,,,,,,,,48.591365400000086,None,['v'],0,[0.4272809999999936],48.556699500000036,None,,,,,,,,,,,,,,,,,,,,,,,,,,,,,davidson,001,2023_Nov_04_1032,stroop_task,3.2.3,60.60246118715113,
azul,a,,0,34,34,4,,,,,,,,,,,,,,,49.05721320000009,None,['a'],0,[0.5587936999999101],49.0078575,None,,,,,,,,,,,,,,,,,,,,,,,,,,,,,davidson,001,2023_Nov_04_1032,stroop_task,3.2.3,60.60246118715113,
,,,,,,,,,,,,,,,,,,,,,,,,,,,,49.59324909999998,None,space,0.7620540000000346,54.58045000000004,None,,,,,,,,,,,,,,,,,,,,,,,davidson,001,2023_Nov_04_1032,stroop_task,3.2.3,60.60246118715113,
,v,"[-1, 0.04, -1]",,,,,0,0,0,21,,,,,,,,,,,,,,,,,,,,,,,,55.456033400000024,None,['v'],0,[0.9853425999999672],55.397039300000074,None,,,,,,,,,,,,,,,,davidson,001,2023_Nov_04_1032,stroop_task,3.2.3,60.60246118715113,
,v,"[-1, 0.04, -1]",,,,,0,1,1,24,,,,,,,,,,,,,,,,,,,,,,,,56.431715800000006,None,['v'],0,[0.441289299999994],56.39837220000004,None,,,,,,,,,,,,,,,,davidson,001,2023_Nov_04_1032,stroop_task,3.2.3,60.60246118715113,
,l,"[0.004, -1, 0.004]",,,,,0,2,2,30,,,,,,,,,,,,,,,,,,,,,,,,56.89905580000004,None,['l'],0,[0.9035873000000265],56.86485460000006,None,,,,,,,,,,,,,,,,davidson,001,2023_Nov_04_1032,stroop_task,3.2.3,60.60246118715113,
,n,"[1, 0.1, -1]",,,,,0,3,3,8,,,,,,,,,,,,,,,,,,,,,,,,57.835106400000086,None,['n'],0,[0.5866813999999749],57.78788230000009,None,,,,,,,,,,,,,,,,davidson,001,2023_Nov_04_1032,stroop_task,3.2.3,60.60246118715113,
,l,"[0.004, -1, 0.004]",,,,,0,4,4,32,,,,,,,,,,,,,,,,,,,,,,,,58.43357910000009,None,['l'],0,[0.42245599999989736],58.40145360000008,None,,,,,,,,,,,,,,,,davidson,001,2023_Nov_04_1032,stroop_task,3.2.3,60.60246118715113,
,v,"[-1, 0.04, -1]",,,,,0,5,5,22,,,,,,,,,,,,,,,,,,,,,,,,58.88457190000008,None,['v'],0,[0.5962693000000172],58.85021260000008,None,,,,,,,,,,,,,,,,davidson,001,2023_Nov_04_1032,stroop_task,3.2.3,60.60246118715113,
,n,"[1, 0.1, -1]",,,,,0,6,6,13,,,,,,,,,,,,,,,,,,,,,,,,59.501376100000016,None,"['l', 'n']",0,"[0.6652172999999948, 0.9849545000000717]",59.469475800000055,None,,,,,,,,,,,,,,,,davidson,001,2023_Nov_04_1032,stroop_task,3.2.3,60.60246118715113,
,a,"[-1, -1, 1]",,,,,0,7,7,5,,,,,,,,,,,,,,,,,,,,,,,,60.51907940000001,None,['a'],0,[0.5709113000000343],60.48512010000002,None,,,,,,,,,,,,,,,,davidson,001,2023_Nov_04_1032,stroop_task,3.2.3,60.60246118715113,
,n,"[1, 0.1, -1]",,,,,0,8,8,10,,,,,,,,,,,,,,,,,,,,,,,,61.12002170000005,None,['n'],0,[1.1090864999999894],61.074632600000086,None,,,,,,,,,,,,,,,,davidson,001,2023_Nov_04_1032,stroop_task,3.2.3,60.60246118715113,
,v,"[-1, 0.04, -1]",,,,,0,9,9,18,,,,,,,,,,,,,,,,,,,,,,,,62.237913400000025,None,['v'],0,[0.9881950000000188],62.20384730000001,None,,,,,,,,,,,,,,,,davidson,001,2023_Nov_04_1032,stroop_task,3.2.3,60.60246118715113,
,v,"[-1, 0.04, -1]",,,,,0,10,10,19,,,,,,,,,,,,,,,,,,,,,,,,63.25540369999999,None,['v'],0,[0.452470500000004],63.20994230000008,None,,,,,,,,,,,,,,,,davidson,001,2023_Nov_04_1032,stroop_task,3.2.3,60.60246118715113,
,n,"[1, 0.1, -1]",,,,,0,11,11,15,,,,,,,,,,,,,,,,,,,,,,,,63.72218310000005,None,['n'],0,[0.6392319999999927],63.688321599999995,None,,,,,,,,,,,,,,,,davidson,001,2023_Nov_04_1032,stroop_task,3.2.3,60.60246118715113,
,v,"[-1, 0.04, -1]",,,,,0,12,12,25,,,,,,,,,,,,,,,,,,,,,,,,64.38996459999998,None,['v'],0,[0.7068696000000045],64.35562650000008,None,,,,,,,,,,,,,,,,davidson,001,2023_Nov_04_1032,stroop_task,3.2.3,60.60246118715113,
,a,"[-1, -1, 1]",,,,,0,13,13,1,,,,,,,,,,,,,,,,,,,,,,,,65.14076690000002,None,['a'],0,[0.6978054999999586],65.09387709999999,None,,,,,,,,,,,,,,,,davidson,001,2023_Nov_04_1032,stroop_task,3.2.3,60.60246118715113,
,n,"[1, 0.1, -1]",,,,,0,14,14,12,,,,,,,,,,,,,,,,,,,,,,,,65.84149050000008,None,['n'],0,[0.9214566000000559],65.80718490000004,None,,,,,,,,,,,,,,,,davidson,001,2023_Nov_04_1032,stroop_task,3.2.3,60.60246118715113,
,v,"[-1, 0.04, -1]",,,,,0,15,15,23,,,,,,,,,,,,,,,,,,,,,,,,66.79241710000008,None,['v'],0,[0.62724819999994],66.74854490000007,None,,,,,,,,,,,,,,,,davidson,001,2023_Nov_04_1032,stroop_task,3.2.3,60.60246118715113,
,a,"[-1, -1, 1]",,,,,0,16,16,3,,,,,,,,,,,,,,,,,,,,,,,,67.44300370000008,None,['a'],0,[0.666129299999966],67.39634860000001,None,,,,,,,,,,,,,,,,davidson,001,2023_Nov_04_1032,stroop_task,3.2.3,60.60246118715113,
,l,"[0.004, -1, 0.004]",,,,,0,17,17,34,,,,,,,,,,,,,,,,,,,,,,,,68.12679850000006,None,['l'],0,[0.8817692000000079],68.09275430000002,None,,,,,,,,,,,,,,,,davidson,001,2023_Nov_04_1032,stroop_task,3.2.3,60.60246118715113,
,n,"[1, 0.1, -1]",,,,,0,18,18,16,,,,,,,,,,,,,,,,,,,,,,,,69.02753050000001,None,['n'],0,[1.0586005000000114],68.99573970000006,None,,,,,,,,,,,,,,,,davidson,001,2023_Nov_04_1032,stroop_task,3.2.3,60.60246118715113,
,l,"[0.004, -1, 0.004]",,,,,0,19,19,31,,,,,,,,,,,,,,,,,,,,,,,,70.11192730000005,None,['l'],0,[0.6644008000000667],70.07805400000007,None,,,,,,,,,,,,,,,,davidson,001,2023_Nov_04_1032,stroop_task,3.2.3,60.60246118715113,
,a,"[-1, -1, 1]",,,,,0,20,20,0,,,,,,,,,,,,,,,,,,,,,,,,70.79594940000004,None,['a'],0,[0.7483821000000717],70.76208200000008,None,,,,,,,,,,,,,,,,davidson,001,2023_Nov_04_1032,stroop_task,3.2.3,60.60246118715113,
,l,"[0.004, -1, 0.004]",,,,,0,21,21,26,,,,,,,,,,,,,,,,,,,,,,,,71.56449770000006,None,['l'],0,[1.1412672000000157],71.52948930000002,None,,,,,,,,,,,,,,,,davidson,001,2023_Nov_04_1032,stroop_task,3.2.3,60.60246118715113,
,n,"[1, 0.1, -1]",,,,,0,22,22,11,,,,,,,,,,,,,,,,,,,,,,,,72.73133930000006,None,['n'],0,[0.6359796000000415],72.69863980000002,None,,,,,,,,,,,,,,,,davidson,001,2023_Nov_04_1032,stroop_task,3.2.3,60.60246118715113,
,a,"[-1, -1, 1]",,,,,0,23,23,2,,,,,,,,,,,,,,,,,,,,,,,,73.39866080000002,None,['a'],0,[0.5520071999999345],73.36684439999999,None,,,,,,,,,,,,,,,,davidson,001,2023_Nov_04_1032,stroop_task,3.2.3,60.60246118715113,
,v,"[-1, 0.04, -1]",,,,,0,24,24,17,,,,,,,,,,,,,,,,,,,,,,,,73.9826448,None,['v'],0,[0.5771621999999752],73.94931070000007,None,,,,,,,,,,,,,,,,davidson,001,2023_Nov_04_1032,stroop_task,3.2.3,60.60246118715113,
,v,"[-1, 0.04, -1]",,,,,0,25,25,20,,,,,,,,,,,,,,,,,,,,,,,,74.583076,None,['v'],0,[0.4892452000000276],74.54917169999999,None,,,,,,,,,,,,,,,,davidson,001,2023_Nov_04_1032,stroop_task,3.2.3,60.60246118715113,
,n,"[1, 0.1, -1]",,,,,0,26,26,9,,,,,,,,,,,,,,,,,,,,,,,,75.11922630000004,None,['n'],0,[0.6775834000000032],75.06995100000006,None,,,,,,,,,,,,,,,,davidson,001,2023_Nov_04_1032,stroop_task,3.2.3,60.60246118715113,
,a,"[-1, -1, 1]",,,,,0,27,27,4,,,,,,,,,,,,,,,,,,,,,,,,75.80162560000008,None,['a'],0,[0.5349848000000748],75.7676543,None,,,,,,,,,,,,,,,,davidson,001,2023_Nov_04_1032,stroop_task,3.2.3,60.60246118715113,
,l,"[0.004, -1, 0.004]",,,,,0,28,28,28,,,,,,,,,,,,,,,,,,,,,,,,76.36904760000004,None,['l'],0,[0.6491935999999896],76.31818750000002,None,,,,,,,,,,,,,,,,davidson,001,2023_Nov_04_1032,stroop_task,3.2.3,60.60246118715113,
,a,"[-1, -1, 1]",,,,,0,29,29,6,,,,,,,,,,,,,,,,,,,,,,,,77.01974570000004,None,['a'],0,[0.6301983000000746],76.98531850000006,None,,,,,,,,,,,,,,,,davidson,001,2023_Nov_04_1032,stroop_task,3.2.3,60.60246118715113,
,n,"[1, 0.1, -1]",,,,,0,30,30,14,,,,,,,,,,,,,,,,,,,,,,,,77.67028779999998,None,['n'],0,[1.026183299999957],77.63638079999998,None,,,,,,,,,,,,,,,,davidson,001,2023_Nov_04_1032,stroop_task,3.2.3,60.60246118715113,
,l,"[0.004, -1, 0.004]",,,,,0,31,31,27,,,,,,,,,,,,,,,,,,,,,,,,78.7205573,None,['l'],0,[0.6305434000000787],78.68855070000006,None,,,,,,,,,,,,,,,,davidson,001,2023_Nov_04_1032,stroop_task,3.2.3,60.60246118715113,
,a,"[-1, -1, 1]",,,,,0,32,32,7,,,,,,,,,,,,,,,,,,,,,,,,79.38783550000005,None,['a'],0,[0.6129570000000513],79.3375102,None,,,,,,,,,,,,,,,,davidson,001,2023_Nov_04_1032,stroop_task,3.2.3,60.60246118715113,
,l,"[0.004, -1, 0.004]",,,,,0,33,33,29,,,,,,,,,,,,,,,,,,,,,,,,80.00774999999999,None,['l'],0,[1.0675467999999455],79.9712902,None,,,,,,,,,,,,,,,,davidson,001,2023_Nov_04_1032,stroop_task,3.2.3,60.60246118715113,
,l,"[0.004, -1, 0.004]",,,,,0,34,34,33,,,,,,,,,,,,,,,,,,,,,,,,81.08997529999999,None,['l'],0,[0.6882905999999593],81.05568720000008,None,,,,,,,,,,,,,,,,davidson,001,2023_Nov_04_1032,stroop_task,3.2.3,60.60246118715113,
,,,,,,,,,,,,,,,,,,,,,,,,,,,,,,,,,,,,,,,,,81.76347500000008,None,space,3.477583999999979,86.74538810000001,None,,,,,,,,,,davidson,001,2023_Nov_04_1032,stroop_task,3.2.3,60.60246118715113,
naranja,v,"[-1, 0.04, -1]",,,,,,,,,0,0,0,21,,,,,,,,,,,,,,,,,,,,,,,,,,,,,,,,,90.34837890000006,None,['v'],0,[1.7328880000000026],90.29870990000006,None,,,davidson,001,2023_Nov_04_1032,stroop_task,3.2.3,60.60246118715113,
verde,l,"[0.004, -1, 0.004]",,,,,,,,,0,1,1,30,,,,,,,,,,,,,,,,,,,,,,,,,,,,,,,,,92.1168073,None,['l'],0,[0.7844829000000573],92.07029799999998,None,,,davidson,001,2023_Nov_04_1032,stroop_task,3.2.3,60.60246118715113,
azul,l,"[0.004, -1, 0.004]",,,,,,,,,0,2,2,28,,,,,,,,,,,,,,,,,,,,,,,,,,,,,,,,,92.93428620000009,None,['l'],0,[0.42070369999999],92.8897432,None,,,davidson,001,2023_Nov_04_1032,stroop_task,3.2.3,60.60246118715113,
naranja,a,"[-1, -1, 1]",,,,,,,,,0,3,3,4,,,,,,,,,,,,,,,,,,,,,,,,,,,,,,,,,93.38496700000007,None,['a'],0,[0.6629747000000634],93.33564180000008,None,,,davidson,001,2023_Nov_04_1032,stroop_task,3.2.3,60.60246118715113,
lila,n,"[1, 0.1, -1]",,,,,,,,,0,4,4,14,,,,,,,,,,,,,,,,,,,,,,,,,,,,,,,,,94.06874560000006,None,['n'],0,[0.9237865000000056],94.01870370000006,None,,,davidson,001,2023_Nov_04_1032,stroop_task,3.2.3,60.60246118715113,
azul,n,"[1, 0.1, -1]",,,,,,,,,0,5,5,9,,,,,,,,,,,,,,,,,,,,,,,,,,,,,,,,,95.02353800000003,None,['n'],0,[0.39143699999999626],94.97517479999999,None,,,davidson,001,2023_Nov_04_1032,stroop_task,3.2.3,60.60246118715113,
azul,l,"[0.004, -1, 0.004]",,,,,,,,,0,6,6,26,,,,,,,,,,,,,,,,,,,,,,,,,,,,,,,,,95.42010100000005,None,['l'],0,[0.6839072999999871],95.3866557,None,,,davidson,001,2023_Nov_04_1032,stroop_task,3.2.3,60.60246118715113,
lila,v,"[-1, 0.04, -1]",,,,,,,,,0,7,7,24,,,,,,,,,,,,,,,,,,,,,,,,,,,,,,,,,96.15512390000004,None,['v'],0,[1.3591856999998981],96.104692,None,,,davidson,001,2023_Nov_04_1032,stroop_task,3.2.3,60.60246118715113,
verde,l,"[0.004, -1, 0.004]",,,,,,,,,0,8,8,31,,,,,,,,,,,,,,,,,,,,,,,,,,,,,,,,,97.53917530000001,None,['l'],0,[1.276132900000107],97.49919140000009,None,,,davidson,001,2023_Nov_04_1032,stroop_task,3.2.3,60.60246118715113,
lila,v,"[-1, 0.04, -1]",,,,,,,,,0,9,9,23,,,,,,,,,,,,,,,,,,,,,,,,,,,,,,,,,98.84043070000007,None,['v'],0,[0.6646188000000848],98.79920060000006,None,,,davidson,001,2023_Nov_04_1032,stroop_task,3.2.3,60.60246118715113,
verde,n,"[1, 0.1, -1]",,,,,,,,,0,10,10,11,,,,,,,,,,,,,,,,,,,,,,,,,,,,,,,,,99.54111,None,['n'],0,[0.6499988000000485],99.500633,None,,,davidson,001,2023_Nov_04_1032,stroop_task,3.2.3,60.60246118715113,
naranja,v,"[-1, 0.04, -1]",,,,,,,,,0,11,11,20,,,,,,,,,,,,,,,,,,,,,,,,,,,,,,,,,100.22498410000003,None,['v'],0,[0.8878547000000481],100.18247870000005,None,,,davidson,001,2023_Nov_04_1032,stroop_task,3.2.3,60.60246118715113,
azul,v,"[-1, 0.04, -1]",,,,,,,,,0,12,12,19,,,,,,,,,,,,,,,,,,,,,,,,,,,,,,,,,101.14444680000008,None,['v'],0,[0.5369319000000132],101.09382149999999,None,,,davidson,001,2023_Nov_04_1032,stroop_task,3.2.3,60.60246118715113,
verde,n,"[1, 0.1, -1]",,,,,,,,,0,13,13,12,,,,,,,,,,,,,,,,,,,,,,,,,,,,,,,,,101.70973179999999,None,['n'],0,[0.6496096000000762],101.66144689999999,None,,,davidson,001,2023_Nov_04_1032,stroop_task,3.2.3,60.60246118715113,
naranja,a,"[-1, -1, 1]",,,,,,,,,0,14,14,2,,,,,,,,,,,,,,,,,,,,,,,,,,,,,,,,,102.37707920000003,None,['a'],0,[0.5856963999999607],102.33275350000008,None,,,davidson,001,2023_Nov_04_1032,stroop_task,3.2.3,60.60246118715113,
azul,n,"[1, 0.1, -1]",,,,,,,,,0,15,15,10,,,,,,,,,,,,,,,,,,,,,,,,,,,,,,,,,102.99505740000006,None,['n'],0,[1.3875193000000081],102.9551414,None,,,davidson,001,2023_Nov_04_1032,stroop_task,3.2.3,60.60246118715113,
lila,v,"[-1, 0.04, -1]",,,,,,,,,0,16,16,25,,,,,,,,,,,,,,,,,,,,,,,,,,,,,,,,,104.41348449999998,None,['v'],0,[0.9724918000000571],104.36226580000005,None,,,davidson,001,2023_Nov_04_1032,stroop_task,3.2.3,60.60246118715113,
lila,n,"[1, 0.1, -1]",,,,,,,,,0,17,17,15,,,,,,,,,,,,,,,,,,,,,,,,,,,,,,,,,105.41541170000005,None,['n'],0,[0.772466799999961],105.37078340000005,None,,,davidson,001,2023_Nov_04_1032,stroop_task,3.2.3,60.60246118715113,
naranja,l,"[0.004, -1, 0.004]",,,,,,,,,0,18,18,34,,,,,,,,,,,,,,,,,,,,,,,,,,,,,,,,,106.21429420000004,None,['l'],0,[0.6666188000000375],106.17185080000002,None,,,davidson,001,2023_Nov_04_1032,stroop_task,3.2.3,60.60246118715113,
azul,v,"[-1, 0.04, -1]",,,,,,,,,0,19,19,17,,,,,,,,,,,,,,,,,,,,,,,,,,,,,,,,,106.91491130000009,None,['v'],0,[0.9896919999999909],106.86478590000002,None,,,davidson,001,2023_Nov_04_1032,stroop_task,3.2.3,60.60246118715113,
lila,n,"[1, 0.1, -1]",,,,,,,,,0,20,20,16,,,,,,,,,,,,,,,,,,,,,,,,,,,,,,,,,107.94979560000002,None,['n'],0,[1.522540700000036],107.89995410000006,None,,,davidson,001,2023_Nov_04_1032,stroop_task,3.2.3,60.60246118715113,
lila,a,"[-1, -1, 1]",,,,,,,,,0,21,21,7,,,,,,,,,,,,,,,,,,,,,,,,,,,,,,,,,109.48410050000007,None,['a'],0,[1.1730000000000018],109.45070950000002,None,,,davidson,001,2023_Nov_04_1032,stroop_task,3.2.3,60.60246118715113,
azul,n,"[1, 0.1, -1]",,,,,,,,,0,22,22,8,,,,,,,,,,,,,,,,,,,,,,,,,,,,,,,,,110.70216220000009,None,"['v', 'n']",0,"[1.1082566000000043, 1.205937400000039]",110.65838460000009,None,,,davidson,001,2023_Nov_04_1032,stroop_task,3.2.3,60.60246118715113,
lila,a,"[-1, -1, 1]",,,,,,,,,0,23,23,6,,,,,,,,,,,,,,,,,,,,,,,,,,,,,,,,,111.9368369,None,['a'],0,[1.2461524999999938],111.89634490000003,None,,,davidson,001,2023_Nov_04_1032,stroop_task,3.2.3,60.60246118715113,
naranja,l,"[0.004, -1, 0.004]",,,,,,,,,0,24,24,32,,,,,,,,,,,,,,,,,,,,,,,,,,,,,,,,,113.23793610000007,None,['l'],0,[0.7099931999999853],113.19272290000004,None,,,davidson,001,2023_Nov_04_1032,stroop_task,3.2.3,60.60246118715113,
verde,a,"[-1, -1, 1]",,,,,,,,,0,25,25,1,,,,,,,,,,,,,,,,,,,,,,,,,,,,,,,,,113.9719877,None,['a'],0,[0.6004645999998957],113.92603100000008,None,,,davidson,001,2023_Nov_04_1032,stroop_task,3.2.3,60.60246118715113,
naranja,l,"[0.004, -1, 0.004]",,,,,,,,,0,26,26,33,,,,,,,,,,,,,,,,,,,,,,,,,,,,,,,,,114.61117890000003,None,['l'],0,[0.6019569000000047],114.58192200000008,None,,,davidson,001,2023_Nov_04_1032,stroop_task,3.2.3,60.60246118715113,
verde,n,"[1, 0.1, -1]",,,,,,,,,0,27,27,13,,,,,,,,,,,,,,,,,,,,,,,,,,,,,,,,,115.25673710000001,None,['n'],0,[0.7987342999999782],115.21592710000004,None,,,davidson,001,2023_Nov_04_1032,stroop_task,3.2.3,60.60246118715113,
lila,a,"[-1, -1, 1]",,,,,,,,,0,28,28,5,,,,,,,,,,,,,,,,,,,,,,,,,,,,,,,,,116.09071840000001,None,['a'],0,[0.7828213999999889],116.06370360000005,None,,,davidson,001,2023_Nov_04_1032,stroop_task,3.2.3,60.60246118715113,
verde,l,"[0.004, -1, 0.004]",,,,,,,,,0,29,29,29,,,,,,,,,,,,,,,,,,,,,,,,,,,,,,,,,116.92692410000006,None,['l'],0,[0.7718557000000601],116.87581550000004,None,,,davidson,001,2023_Nov_04_1032,stroop_task,3.2.3,60.60246118715113,
naranja,v,"[-1, 0.04, -1]",,,,,,,,,0,30,30,22,,,,,,,,,,,,,,,,,,,,,,,,,,,,,,,,,117.74240640000005,None,['v'],0,[0.7021082999999635],117.68976459999999,None,,,davidson,001,2023_Nov_04_1032,stroop_task,3.2.3,60.60246118715113,
azul,l,"[0.004, -1, 0.004]",,,,,,,,,0,31,31,27,,,,,,,,,,,,,,,,,,,,,,,,,,,,,,,,,118.4604392,None,['l'],0,[0.7814971999999898],118.4251405,None,,,davidson,001,2023_Nov_04_1032,stroop_task,3.2.3,60.60246118715113,
verde,a,"[-1, -1, 1]",,,,,,,,,0,32,32,0,,,,,,,,,,,,,,,,,,,,,,,,,,,,,,,,,119.27739140000006,None,['a'],0,[0.849881900000014],119.22965450000004,None,,,davidson,001,2023_Nov_04_1032,stroop_task,3.2.3,60.60246118715113,
naranja,a,"[-1, -1, 1]",,,,,,,,,0,33,33,3,,,,,,,,,,,,,,,,,,,,,,,,,,,,,,,,,120.14491959999998,None,['a'],0,[0.5781032999999525],120.10884840000006,None,,,davidson,001,2023_Nov_04_1032,stroop_task,3.2.3,60.60246118715113,
azul,v,"[-1, 0.04, -1]",,,,,,,,,0,34,34,18,,,,,,,,,,,,,,,,,,,,,,,,,,,,,,,,,120.76402310000003,None,"['n', 'v']",0,"[0.7907919000000447, 1.2795229000000745]",120.7121697,None,,,davidson,001,2023_Nov_04_1032,stroop_task,3.2.3,60.60246118715113,
,,,,,,,,,,,,,,,,,,,,,,,,,,,,,,,,,,,,,,,,,,,,,,,,,,,,,,122.01337480000007,None,,,,,,,
