texto,answer,color,trials.thisRepN,trials.thisTrialN,trials.thisN,trials.thisIndex,trials_2.thisRepN,trials_2.thisTrialN,trials_2.thisN,trials_2.thisIndex,trials_3.thisRepN,trials_3.thisTrialN,trials_3.thisN,trials_3.thisIndex,Instrucciones_texto.started,Instrucciones_texto.stopped,key_resp.keys,key_resp.rt,key_resp.started,key_resp.stopped,colores1.started,colores1.stopped,respuesta.keys,respuesta.corr,respuesta.rt,respuesta.started,respuesta.stopped,text_intructionses2.started,text_intructionses2.stopped,key_resp_2.keys,key_resp_2.rt,key_resp_2.started,key_resp_2.stopped,rectangulo.started,rectangulo.stopped,respuesta_rect.keys,respuesta_rect.corr,respuesta_rect.rt,respuesta_rect.started,respuesta_rect.stopped,text.started,text.stopped,key_resp_3.keys,key_resp_3.rt,key_resp_3.started,key_resp_3.stopped,colores2.started,colores2.stopped,respuesta_mix.keys,respuesta_mix.corr,respuesta_mix.rt,respuesta_mix.started,respuesta_mix.stopped,despedida.started,despedida.stopped,participant,session,date,expName,psychopyVersion,frameRate,
,,,,,,,,,,,,,,,6.911999699892476,None,space,2.4872168998699635,12.884268200024962,None,,,,,,,,,,,,,,,,,,,,,,,,,,,,,,,,,,,,dsb,001,2023_Mar_08_1740,stroop_task,3.2.3,60.06933203347996,
naranja,n,,0,0,0,14,,,,,,,,,,,,,,,15.499183699954301,None,['n'],0,[1.2084631000179797],15.447409400017932,None,,,,,,,,,,,,,,,,,,,,,,,,,,,,,dsb,001,2023_Mar_08_1740,stroop_task,3.2.3,60.06933203347996,
lila,l,,0,1,1,29,,,,,,,,,,,,,,,16.73215109994635,None,['l'],0,[0.7444906998425722],16.695237499894574,None,,,,,,,,,,,,,,,,,,,,,,,,,,,,,dsb,001,2023_Mar_08_1740,stroop_task,3.2.3,60.06933203347996,
naranja,n,,0,2,2,11,,,,,,,,,,,,,,,17.51507469988428,None,['n'],0,[0.4827874999027699],17.46510799997486,None,,,,,,,,,,,,,,,,,,,,,,,,,,,,,dsb,001,2023_Mar_08_1740,stroop_task,3.2.3,60.06933203347996,
verde,v,,0,3,3,20,,,,,,,,,,,,,,,18.015157300047576,None,['v'],0,[0.6508913999423385],17.97460180008784,None,,,,,,,,,,,,,,,,,,,,,,,,,,,,,dsb,001,2023_Mar_08_1740,stroop_task,3.2.3,60.06933203347996,
naranja,n,,0,4,4,8,,,,,,,,,,,,,,,18.69796729995869,None,['n'],0,[0.7676687999628484],18.65619169990532,None,,,,,,,,,,,,,,,,,,,,,,,,,,,,,dsb,001,2023_Mar_08_1740,stroop_task,3.2.3,60.06933203347996,
naranja,n,,0,5,5,13,,,,,,,,,,,,,,,19.48151950002648,None,['n'],0,[0.6191304000094533],19.44816130003892,None,,,,,,,,,,,,,,,,,,,,,,,,,,,,,dsb,001,2023_Mar_08_1740,stroop_task,3.2.3,60.06933203347996,
verde,v,,0,6,6,21,,,,,,,,,,,,,,,20.130896999966353,None,['v'],0,[0.6871974000241607],20.097538500092924,None,,,,,,,,,,,,,,,,,,,,,,,,,,,,,dsb,001,2023_Mar_08_1740,stroop_task,3.2.3,60.06933203347996,
naranja,n,,0,7,7,9,,,,,,,,,,,,,,,20.86437730002217,None,['n'],0,[0.699405400082469],20.826451299944893,None,,,,,,,,,,,,,,,,,,,,,,,,,,,,,dsb,001,2023_Mar_08_1740,stroop_task,3.2.3,60.06933203347996,
verde,v,,0,8,8,22,,,,,,,,,,,,,,,21.597487200051546,None,['v'],0,[0.48378270003013313],21.547127099940553,None,,,,,,,,,,,,,,,,,,,,,,,,,,,,,dsb,001,2023_Mar_08_1740,stroop_task,3.2.3,60.06933203347996,
verde,v,,0,9,9,24,,,,,,,,,,,,,,,22.080339799867943,None,['v'],0,[0.517594899982214],22.046432100003585,None,,,,,,,,,,,,,,,,,,,,,,,,,,,,,dsb,001,2023_Mar_08_1740,stroop_task,3.2.3,60.06933203347996,
naranja,n,,0,10,10,16,,,,,,,,,,,,,,,22.630303599871695,None,['n'],0,[0.93517000018619],22.580002599861473,None,,,,,,,,,,,,,,,,,,,,,,,,,,,,,dsb,001,2023_Mar_08_1740,stroop_task,3.2.3,60.06933203347996,
verde,v,,0,11,11,19,,,,,,,,,,,,,,,23.580286199925467,None,['v'],0,[0.5154210000764579],23.545898200012743,None,,,,,,,,,,,,,,,,,,,,,,,,,,,,,dsb,001,2023_Mar_08_1740,stroop_task,3.2.3,60.06933203347996,
azul,a,,0,12,12,6,,,,,,,,,,,,,,,24.12935859989375,None,['a'],0,[0.5721887999679893],24.089147899998352,None,,,,,,,,,,,,,,,,,,,,,,,,,,,,,dsb,001,2023_Mar_08_1740,stroop_task,3.2.3,60.06933203347996,
azul,a,,0,13,13,4,,,,,,,,,,,,,,,24.71295899990946,None,['a'],0,[0.4984999999869615],24.68885700008832,None,,,,,,,,,,,,,,,,,,,,,,,,,,,,,dsb,001,2023_Mar_08_1740,stroop_task,3.2.3,60.06933203347996,
azul,a,,0,14,14,3,,,,,,,,,,,,,,,25.24607459991239,None,['a'],0,[0.5189934000372887],25.2127825000789,None,,,,,,,,,,,,,,,,,,,,,,,,,,,,,dsb,001,2023_Mar_08_1740,stroop_task,3.2.3,60.06933203347996,
verde,v,,0,15,15,23,,,,,,,,,,,,,,,25.81203610007651,None,['v'],0,[1.0189577001146972],25.76989739993587,None,,,,,,,,,,,,,,,,,,,,,,,,,,,,,dsb,001,2023_Mar_08_1740,stroop_task,3.2.3,60.06933203347996,
azul,a,,0,16,16,0,,,,,,,,,,,,,,,26.86186799989082,None,['a'],0,[0.4839359999168664],26.816556199919432,None,,,,,,,,,,,,,,,,,,,,,,,,,,,,,dsb,001,2023_Mar_08_1740,stroop_task,3.2.3,60.06933203347996,
verde,v,,0,17,17,17,,,,,,,,,,,,,,,27.362151900073513,None,['v'],0,[0.548145700013265],27.32791249989532,None,,,,,,,,,,,,,,,,,,,,,,,,,,,,,dsb,001,2023_Mar_08_1740,stroop_task,3.2.3,60.06933203347996,
lila,l,,0,18,18,26,,,,,,,,,,,,,,,27.928639200050384,None,['l'],0,[0.5316488000098616],27.900852099992335,None,,,,,,,,,,,,,,,,,,,,,,,,,,,,,dsb,001,2023_Mar_08_1740,stroop_task,3.2.3,60.06933203347996,
verde,v,,0,19,19,18,,,,,,,,,,,,,,,28.495152099989355,None,['v'],0,[0.6014094999991357],28.461726899957284,None,,,,,,,,,,,,,,,,,,,,,,,,,,,,,dsb,001,2023_Mar_08_1740,stroop_task,3.2.3,60.06933203347996,
naranja,n,,0,20,20,10,,,,,,,,,,,,,,,29.127653300063685,None,['n'],0,[0.670266899978742],29.080993300070986,None,,,,,,,,,,,,,,,,,,,,,,,,,,,,,dsb,001,2023_Mar_08_1740,stroop_task,3.2.3,60.06933203347996,
azul,a,,0,21,21,2,,,,,,,,,,,,,,,29.82782749994658,None,['a'],0,[0.7685690999496728],29.785823500016704,None,,,,,,,,,,,,,,,,,,,,,,,,,,,,,dsb,001,2023_Mar_08_1740,stroop_task,3.2.3,60.06933203347996,
lila,l,,0,22,22,28,,,,,,,,,,,,,,,30.611177399987355,None,['l'],0,[1.0432460999581963],30.577298399992287,None,,,,,,,,,,,,,,,,,,,,,,,,,,,,,dsb,001,2023_Mar_08_1740,stroop_task,3.2.3,60.06933203347996,
azul,a,,0,23,23,1,,,,,,,,,,,,,,,31.693335300078616,None,['a'],0,[0.7385935999918729],31.650962099898607,None,,,,,,,,,,,,,,,,,,,,,,,,,,,,,dsb,001,2023_Mar_08_1740,stroop_task,3.2.3,60.06933203347996,
azul,a,,0,24,24,7,,,,,,,,,,,,,,,32.44370250008069,None,['a'],0,[0.49659299990162253],32.41039999993518,None,,,,,,,,,,,,,,,,,,,,,,,,,,,,,dsb,001,2023_Mar_08_1740,stroop_task,3.2.3,60.06933203347996,
lila,l,,0,25,25,27,,,,,,,,,,,,,,,32.97651659999974,None,['l'],0,[0.6078482999000698],32.93050200003199,None,,,,,,,,,,,,,,,,,,,,,,,,,,,,,dsb,001,2023_Mar_08_1740,stroop_task,3.2.3,60.06933203347996,
azul,a,,0,26,26,5,,,,,,,,,,,,,,,33.59309590002522,None,['a'],0,[0.484118000138551],33.56003549997695,None,,,,,,,,,,,,,,,,,,,,,,,,,,,,,dsb,001,2023_Mar_08_1740,stroop_task,3.2.3,60.06933203347996,
naranja,n,,0,27,27,15,,,,,,,,,,,,,,,34.10997359990142,None,['n'],0,[0.7277504000812769],34.071046999888495,None,,,,,,,,,,,,,,,,,,,,,,,,,,,,,dsb,001,2023_Mar_08_1740,stroop_task,3.2.3,60.06933203347996,
verde,v,,0,28,28,25,,,,,,,,,,,,,,,34.875839199870825,None,['v'],0,[0.5135875002015382],34.830850600032136,None,,,,,,,,,,,,,,,,,,,,,,,,,,,,,dsb,001,2023_Mar_08_1740,stroop_task,3.2.3,60.06933203347996,
naranja,n,,0,29,29,12,,,,,,,,,,,,,,,35.40929610002786,None,['n'],0,[0.6393452999182045],35.36551379994489,None,,,,,,,,,,,,,,,,,,,,,,,,,,,,,dsb,001,2023_Mar_08_1740,stroop_task,3.2.3,60.06933203347996,
,,,,,,,,,,,,,,,,,,,,,,,,,,,,36.0256147000473,None,space,1.616434499854222,41.007986299926415,None,,,,,,,,,,,,,,,,,,,,,,,dsb,001,2023_Mar_08_1740,stroop_task,3.2.3,60.06933203347996,
,v,"[-1, 0.04, -1]",,,,,0,0,0,21,,,,,,,,,,,,,,,,,,,,,,,,42.690441800048575,None,['v'],0,[1.1480818002019078],42.652439600089565,None,,,,,,,,,,,,,,,,dsb,001,2023_Mar_08_1740,stroop_task,3.2.3,60.06933203347996,
,n,"[1, 0.1, -1]",,,,,0,1,1,15,,,,,,,,,,,,,,,,,,,,,,,,43.85662689991295,None,['n'],0,[0.6701381001621485],43.82261299993843,None,,,,,,,,,,,,,,,,dsb,001,2023_Mar_08_1740,stroop_task,3.2.3,60.06933203347996,
,a,"[-1, -1, 1]",,,,,0,2,2,4,,,,,,,,,,,,,,,,,,,,,,,,44.57258199993521,None,['a'],0,[0.6079275000374764],44.522392000071704,None,,,,,,,,,,,,,,,,dsb,001,2023_Mar_08_1740,stroop_task,3.2.3,60.06933203347996,
,n,"[1, 0.1, -1]",,,,,0,3,3,9,,,,,,,,,,,,,,,,,,,,,,,,45.18949280004017,None,['n'],0,[0.7979940001387149],45.15585429989733,None,,,,,,,,,,,,,,,,dsb,001,2023_Mar_08_1740,stroop_task,3.2.3,60.06933203347996,
,l,"[0.004, -1, 0.004]",,,,,0,4,4,29,,,,,,,,,,,,,,,,,,,,,,,,46.00568829989061,None,['l'],0,[0.6009587000589818],45.97247859998606,None,,,,,,,,,,,,,,,,dsb,001,2023_Mar_08_1740,stroop_task,3.2.3,60.06933203347996,
,a,"[-1, -1, 1]",,,,,0,5,5,6,,,,,,,,,,,,,,,,,,,,,,,,46.62251550005749,None,['a'],0,[0.6908882998395711],46.588860400021076,None,,,,,,,,,,,,,,,,dsb,001,2023_Mar_08_1740,stroop_task,3.2.3,60.06933203347996,
,a,"[-1, -1, 1]",,,,,0,6,6,5,,,,,,,,,,,,,,,,,,,,,,,,47.35592300002463,None,['a'],0,[0.5431992998346686],47.305100299883634,None,,,,,,,,,,,,,,,,dsb,001,2023_Mar_08_1740,stroop_task,3.2.3,60.06933203347996,
,n,"[1, 0.1, -1]",,,,,0,7,7,12,,,,,,,,,,,,,,,,,,,,,,,,47.905614299932495,None,['n'],0,[0.9101698000449687],47.871595500037074,None,,,,,,,,,,,,,,,,dsb,001,2023_Mar_08_1740,stroop_task,3.2.3,60.06933203347996,
,v,"[-1, 0.04, -1]",,,,,0,8,8,20,,,,,,,,,,,,,,,,,,,,,,,,48.855307599995285,None,['v'],0,[0.5353842999320477],48.80431929999031,None,,,,,,,,,,,,,,,,dsb,001,2023_Mar_08_1740,stroop_task,3.2.3,60.06933203347996,
,n,"[1, 0.1, -1]",,,,,0,9,9,11,,,,,,,,,,,,,,,,,,,,,,,,49.40539010008797,None,['n'],0,[0.6774793001823127],49.35450519993901,None,,,,,,,,,,,,,,,,dsb,001,2023_Mar_08_1740,stroop_task,3.2.3,60.06933203347996,
,v,"[-1, 0.04, -1]",,,,,0,10,10,24,,,,,,,,,,,,,,,,,,,,,,,,50.10479089990258,None,['v'],0,[0.6236128001473844],50.05416140006855,None,,,,,,,,,,,,,,,,dsb,001,2023_Mar_08_1740,stroop_task,3.2.3,60.06933203347996,
,v,"[-1, 0.04, -1]",,,,,0,11,11,17,,,,,,,,,,,,,,,,,,,,,,,,50.737492999993265,None,['v'],0,[0.5759362000972033],50.70411189994775,None,,,,,,,,,,,,,,,,dsb,001,2023_Mar_08_1740,stroop_task,3.2.3,60.06933203347996,
,v,"[-1, 0.04, -1]",,,,,0,12,12,18,,,,,,,,,,,,,,,,,,,,,,,,51.33761060005054,None,['v'],0,[0.5660868000704795],51.30366129986942,None,,,,,,,,,,,,,,,,dsb,001,2023_Mar_08_1740,stroop_task,3.2.3,60.06933203347996,
,n,"[1, 0.1, -1]",,,,,0,13,13,16,,,,,,,,,,,,,,,,,,,,,,,,51.937537000048906,None,['n'],0,[0.9008671999908984],51.886650200001895,None,,,,,,,,,,,,,,,,dsb,001,2023_Mar_08_1740,stroop_task,3.2.3,60.06933203347996,
,a,"[-1, -1, 1]",,,,,0,14,14,7,,,,,,,,,,,,,,,,,,,,,,,,52.85403260006569,None,['a'],0,[0.6021728001069278],52.80325850006193,None,,,,,,,,,,,,,,,,dsb,001,2023_Mar_08_1740,stroop_task,3.2.3,60.06933203347996,
,v,"[-1, 0.04, -1]",,,,,0,15,15,22,,,,,,,,,,,,,,,,,,,,,,,,53.470396500080824,None,"['n', 'v']",0,"[0.7123330999165773, 1.2315797000192106]",53.43664789991453,None,,,,,,,,,,,,,,,,dsb,001,2023_Mar_08_1740,stroop_task,3.2.3,60.06933203347996,
,v,"[-1, 0.04, -1]",,,,,0,16,16,23,,,,,,,,,,,,,,,,,,,,,,,,54.71963579999283,None,['v'],0,[0.585440999828279],54.685916899936274,None,,,,,,,,,,,,,,,,dsb,001,2023_Mar_08_1740,stroop_task,3.2.3,60.06933203347996,
,a,"[-1, -1, 1]",,,,,0,17,17,0,,,,,,,,,,,,,,,,,,,,,,,,55.33574329991825,None,['a'],0,[0.669035900151357],55.28552239993587,None,,,,,,,,,,,,,,,,dsb,001,2023_Mar_08_1740,stroop_task,3.2.3,60.06933203347996,
,n,"[1, 0.1, -1]",,,,,0,18,18,10,,,,,,,,,,,,,,,,,,,,,,,,56.01911300001666,None,['n'],0,[0.6788354001473635],55.969970899866894,None,,,,,,,,,,,,,,,,dsb,001,2023_Mar_08_1740,stroop_task,3.2.3,60.06933203347996,
,n,"[1, 0.1, -1]",,,,,0,19,19,8,,,,,,,,,,,,,,,,,,,,,,,,56.719635099871084,None,['n'],0,[0.5952481999993324],56.668564199935645,None,,,,,,,,,,,,,,,,dsb,001,2023_Mar_08_1740,stroop_task,3.2.3,60.06933203347996,
,l,"[0.004, -1, 0.004]",,,,,0,20,20,28,,,,,,,,,,,,,,,,,,,,,,,,57.318883900064975,None,['l'],0,[0.5820009999442846],57.285306399920955,None,,,,,,,,,,,,,,,,dsb,001,2023_Mar_08_1740,stroop_task,3.2.3,60.06933203347996,
,a,"[-1, -1, 1]",,,,,0,21,21,3,,,,,,,,,,,,,,,,,,,,,,,,57.93538110004738,None,['a'],0,[0.693682299926877],57.88844979996793,None,,,,,,,,,,,,,,,,dsb,001,2023_Mar_08_1740,stroop_task,3.2.3,60.06933203347996,
,v,"[-1, 0.04, -1]",,,,,0,22,22,25,,,,,,,,,,,,,,,,,,,,,,,,58.635116999968886,None,['v'],0,[1.2219169000163674],58.601465800078586,None,,,,,,,,,,,,,,,,dsb,001,2023_Mar_08_1740,stroop_task,3.2.3,60.06933203347996,
,v,"[-1, 0.04, -1]",,,,,0,23,23,19,,,,,,,,,,,,,,,,,,,,,,,,59.884097799891606,None,['v'],0,[0.6222051000222564],59.85030149994418,None,,,,,,,,,,,,,,,,dsb,001,2023_Mar_08_1740,stroop_task,3.2.3,60.06933203347996,
,l,"[0.004, -1, 0.004]",,,,,0,24,24,27,,,,,,,,,,,,,,,,,,,,,,,,60.53468420007266,None,['l'],0,[0.5919039999134839],60.50048139994033,None,,,,,,,,,,,,,,,,dsb,001,2023_Mar_08_1740,stroop_task,3.2.3,60.06933203347996,
,a,"[-1, -1, 1]",,,,,0,25,25,1,,,,,,,,,,,,,,,,,,,,,,,,61.150641300017014,None,['a'],0,[0.7120434001553804],61.117121200077236,None,,,,,,,,,,,,,,,,dsb,001,2023_Mar_08_1740,stroop_task,3.2.3,60.06933203347996,
,a,"[-1, -1, 1]",,,,,0,26,26,2,,,,,,,,,,,,,,,,,,,,,,,,61.900482800090685,None,['a'],0,[0.5493797999806702],61.85064890002832,None,,,,,,,,,,,,,,,,dsb,001,2023_Mar_08_1740,stroop_task,3.2.3,60.06933203347996,
,n,"[1, 0.1, -1]",,,,,0,27,27,13,,,,,,,,,,,,,,,,,,,,,,,,62.466707200044766,None,['n'],0,[0.686894099926576],62.41690870001912,None,,,,,,,,,,,,,,,,dsb,001,2023_Mar_08_1740,stroop_task,3.2.3,60.06933203347996,
,l,"[0.004, -1, 0.004]",,,,,0,28,28,26,,,,,,,,,,,,,,,,,,,,,,,,63.16682759998366,None,['l'],0,[0.5601135001052171],63.13315730006434,None,,,,,,,,,,,,,,,,dsb,001,2023_Mar_08_1740,stroop_task,3.2.3,60.06933203347996,
,n,"[1, 0.1, -1]",,,,,0,29,29,14,,,,,,,,,,,,,,,,,,,,,,,,63.75011010002345,None,['n'],0,[0.5711034000851214],63.71643469994888,None,,,,,,,,,,,,,,,,dsb,001,2023_Mar_08_1740,stroop_task,3.2.3,60.06933203347996,
,,,,,,,,,,,,,,,,,,,,,,,,,,,,,,,,,,,,,,,,,64.31632340000942,None,space,1.4592095001135021,69.29815610009246,None,,,,,,,,,,dsb,001,2023_Mar_08_1740,stroop_task,3.2.3,60.06933203347996,
azul,l,"[0.004, -1, 0.004]",,,,,,,,,0,0,0,26,,,,,,,,,,,,,,,,,,,,,,,,,,,,,,,,,70.83024849998765,None,['l'],0,[0.7820635999087244],70.80320349987596,None,,,dsb,001,2023_Mar_08_1740,stroop_task,3.2.3,60.06933203347996,
verde,a,"[-1, -1, 1]",,,,,,,,,0,1,1,0,,,,,,,,,,,,,,,,,,,,,,,,,,,,,,,,,71.66354979993775,None,['a'],0,[0.7720933000091463],71.62510910001583,None,,,dsb,001,2023_Mar_08_1740,stroop_task,3.2.3,60.06933203347996,
naranja,a,"[-1, -1, 1]",,,,,,,,,0,2,2,4,,,,,,,,,,,,,,,,,,,,,,,,,,,,,,,,,72.46340409992263,None,['a'],0,[0.5346872999798506],72.42242880002595,None,,,dsb,001,2023_Mar_08_1740,stroop_task,3.2.3,60.06933203347996,
azul,l,"[0.004, -1, 0.004]",,,,,,,,,0,3,3,27,,,,,,,,,,,,,,,,,,,,,,,,,,,,,,,,,73.02986910007894,None,['l'],0,[0.700696999905631],72.98846890009008,None,,,dsb,001,2023_Mar_08_1740,stroop_task,3.2.3,60.06933203347996,
naranja,v,"[-1, 0.04, -1]",,,,,,,,,0,4,4,20,,,,,,,,,,,,,,,,,,,,,,,,,,,,,,,,,73.76249699993059,None,['v'],0,[1.4659607999492437],73.72591689997353,None,,,dsb,001,2023_Mar_08_1740,stroop_task,3.2.3,60.06933203347996,
verde,n,"[1, 0.1, -1]",,,,,,,,,0,5,5,12,,,,,,,,,,,,,,,,,,,,,,,,,,,,,,,,,75.24571879999712,None,['n'],0,[1.041039700154215],75.21831650007516,None,,,dsb,001,2023_Mar_08_1740,stroop_task,3.2.3,60.06933203347996,
lila,v,"[-1, 0.04, -1]",,,,,,,,,0,6,6,23,,,,,,,,,,,,,,,,,,,,,,,,,,,,,,,,,76.32893970003352,None,['v'],0,[0.6367431001272053],76.28421210008673,None,,,dsb,001,2023_Mar_08_1740,stroop_task,3.2.3,60.06933203347996,
azul,n,"[1, 0.1, -1]",,,,,,,,,0,7,7,9,,,,,,,,,,,,,,,,,,,,,,,,,,,,,,,,,76.97857349994592,None,['n'],0,[0.7194866999052465],76.94521509995684,None,,,dsb,001,2023_Mar_08_1740,stroop_task,3.2.3,60.06933203347996,
lila,n,"[1, 0.1, -1]",,,,,,,,,0,8,8,15,,,,,,,,,,,,,,,,,,,,,,,,,,,,,,,,,77.74471509992145,None,['n'],0,[0.7826467999257147],77.69870609999634,None,,,dsb,001,2023_Mar_08_1740,stroop_task,3.2.3,60.06933203347996,
lila,a,"[-1, -1, 1]",,,,,,,,,0,9,9,6,,,,,,,,,,,,,,,,,,,,,,,,,,,,,,,,,78.54396430007182,None,['a'],0,[0.7580136000178754],78.51124739996158,None,,,dsb,001,2023_Mar_08_1740,stroop_task,3.2.3,60.06933203347996,
naranja,v,"[-1, 0.04, -1]",,,,,,,,,0,10,10,21,,,,,,,,,,,,,,,,,,,,,,,,,,,,,,,,,79.34444119990803,None,['v'],0,[1.3204453000798821],79.3053299000021,None,,,dsb,001,2023_Mar_08_1740,stroop_task,3.2.3,60.06933203347996,
azul,v,"[-1, 0.04, -1]",,,,,,,,,0,11,11,17,,,,,,,,,,,,,,,,,,,,,,,,,,,,,,,,,80.69358789990656,None,['v'],0,[0.6571547000203282],80.65615339996293,None,,,dsb,001,2023_Mar_08_1740,stroop_task,3.2.3,60.06933203347996,
naranja,a,"[-1, -1, 1]",,,,,,,,,0,12,12,2,,,,,,,,,,,,,,,,,,,,,,,,,,,,,,,,,81.39331760001369,None,['a'],0,[0.8671766000334173],81.35063429991715,None,,,dsb,001,2023_Mar_08_1740,stroop_task,3.2.3,60.06933203347996,
lila,n,"[1, 0.1, -1]",,,,,,,,,0,13,13,14,,,,,,,,,,,,,,,,,,,,,,,,,,,,,,,,,82.29352100007236,None,['n'],0,[1.1273286999203265],82.24775370000862,None,,,dsb,001,2023_Mar_08_1740,stroop_task,3.2.3,60.06933203347996,
azul,v,"[-1, 0.04, -1]",,,,,,,,,0,14,14,18,,,,,,,,,,,,,,,,,,,,,,,,,,,,,,,,,83.44312369986437,None,['v'],0,[1.4035779999103397],83.40219689998776,None,,,dsb,001,2023_Mar_08_1740,stroop_task,3.2.3,60.06933203347996,
lila,n,"[1, 0.1, -1]",,,,,,,,,0,15,15,16,,,,,,,,,,,,,,,,,,,,,,,,,,,,,,,,,84.87586480006576,None,['n'],0,[0.6101241998840123],84.83303399989381,None,,,dsb,001,2023_Mar_08_1740,stroop_task,3.2.3,60.06933203347996,
lila,a,"[-1, -1, 1]",,,,,,,,,0,16,16,7,,,,,,,,,,,,,,,,,,,,,,,,,,,,,,,,,85.49171700002626,None,['a'],0,[0.6444637000095099],85.45901210000739,None,,,dsb,001,2023_Mar_08_1740,stroop_task,3.2.3,60.06933203347996,
azul,n,"[1, 0.1, -1]",,,,,,,,,0,17,17,10,,,,,,,,,,,,,,,,,,,,,,,,,,,,,,,,,86.17540799989365,None,['n'],0,[0.8650322000030428],86.12608819990419,None,,,dsb,001,2023_Mar_08_1740,stroop_task,3.2.3,60.06933203347996,
verde,a,"[-1, -1, 1]",,,,,,,,,0,18,18,1,,,,,,,,,,,,,,,,,,,,,,,,,,,,,,,,,87.05848799995147,None,['a'],0,[0.9405998999718577],87.02041990007274,None,,,dsb,001,2023_Mar_08_1740,stroop_task,3.2.3,60.06933203347996,
verde,n,"[1, 0.1, -1]",,,,,,,,,0,19,19,11,,,,,,,,,,,,,,,,,,,,,,,,,,,,,,,,,88.04157990007661,None,['n'],0,[1.7234168001450598],87.99133770004846,None,,,dsb,001,2023_Mar_08_1740,stroop_task,3.2.3,60.06933203347996,
naranja,a,"[-1, -1, 1]",,,,,,,,,0,20,20,3,,,,,,,,,,,,,,,,,,,,,,,,,,,,,,,,,89.79088079999201,None,['a'],0,[0.5927036998327821],89.74220149987377,None,,,dsb,001,2023_Mar_08_1740,stroop_task,3.2.3,60.06933203347996,
naranja,v,"[-1, 0.04, -1]",,,,,,,,,0,21,21,22,,,,,,,,,,,,,,,,,,,,,,,,,,,,,,,,,90.39065920002759,None,['v'],0,[0.8168007000349462],90.35668209986761,None,,,dsb,001,2023_Mar_08_1740,stroop_task,3.2.3,60.06933203347996,
lila,v,"[-1, 0.04, -1]",,,,,,,,,0,22,22,25,,,,,,,,,,,,,,,,,,,,,,,,,,,,,,,,,91.24008910008706,None,['v'],0,[0.45548960007727146],91.20224780007266,None,,,dsb,001,2023_Mar_08_1740,stroop_task,3.2.3,60.06933203347996,
lila,v,"[-1, 0.04, -1]",,,,,,,,,0,23,23,24,,,,,,,,,,,,,,,,,,,,,,,,,,,,,,,,,91.70713869994506,None,['v'],0,[0.7867455999366939],91.67348179989494,None,,,dsb,001,2023_Mar_08_1740,stroop_task,3.2.3,60.06933203347996,
azul,n,"[1, 0.1, -1]",,,,,,,,,0,24,24,8,,,,,,,,,,,,,,,,,,,,,,,,,,,,,,,,,92.54021089989692,None,['n'],0,[1.5017077000811696],92.5029442999512,None,,,dsb,001,2023_Mar_08_1740,stroop_task,3.2.3,60.06933203347996,
azul,v,"[-1, 0.04, -1]",,,,,,,,,0,25,25,19,,,,,,,,,,,,,,,,,,,,,,,,,,,,,,,,,94.07276590005495,None,['v'],0,[1.4983585998415947],94.0220955000259,None,,,dsb,001,2023_Mar_08_1740,stroop_task,3.2.3,60.06933203347996,
azul,l,"[0.004, -1, 0.004]",,,,,,,,,0,26,26,28,,,,,,,,,,,,,,,,,,,,,,,,,,,,,,,,,95.57226489996538,None,['l'],0,[0.5481629001442343],95.53890320006758,None,,,dsb,001,2023_Mar_08_1740,stroop_task,3.2.3,60.06933203347996,
verde,n,"[1, 0.1, -1]",,,,,,,,,0,27,27,13,,,,,,,,,,,,,,,,,,,,,,,,,,,,,,,,,96.1391491999384,None,['n'],0,[0.7337112999521196],96.1049230999779,None,,,dsb,001,2023_Mar_08_1740,stroop_task,3.2.3,60.06933203347996,
lila,a,"[-1, -1, 1]",,,,,,,,,0,28,28,5,,,,,,,,,,,,,,,,,,,,,,,,,,,,,,,,,96.9045877000317,None,['a'],0,[0.6418540000449866],96.86551530007273,None,,,dsb,001,2023_Mar_08_1740,stroop_task,3.2.3,60.06933203347996,
verde,l,"[0.004, -1, 0.004]",,,,,,,,,0,29,29,29,,,,,,,,,,,,,,,,,,,,,,,,,,,,,,,,,97.57157279993407,None,['l'],0,[0.6357603999786079],97.53833119990304,None,,,dsb,001,2023_Mar_08_1740,stroop_task,3.2.3,60.06933203347996,
,,,,,,,,,,,,,,,,,,,,,,,,,,,,,,,,,,,,,,,,,,,,,,,,,,,,,,98.20498729986139,None,,,,,,,
