texto,answer,color,trials.thisRepN,trials.thisTrialN,trials.thisN,trials.thisIndex,trials_2.thisRepN,trials_2.thisTrialN,trials_2.thisN,trials_2.thisIndex,trials_3.thisRepN,trials_3.thisTrialN,trials_3.thisN,trials_3.thisIndex,Instrucciones_texto.started,Instrucciones_texto.stopped,key_resp.keys,key_resp.rt,key_resp.started,key_resp.stopped,colores1.started,colores1.stopped,respuesta.keys,respuesta.corr,respuesta.rt,respuesta.started,respuesta.stopped,text_intructionses2.started,text_intructionses2.stopped,key_resp_2.keys,key_resp_2.rt,key_resp_2.started,key_resp_2.stopped,rectangulo.started,rectangulo.stopped,respuesta_rect.keys,respuesta_rect.corr,respuesta_rect.rt,respuesta_rect.started,respuesta_rect.stopped,text.started,text.stopped,key_resp_3.keys,key_resp_3.rt,key_resp_3.started,key_resp_3.stopped,colores2.started,colores2.stopped,respuesta_mix.keys,respuesta_mix.corr,respuesta_mix.rt,respuesta_mix.started,respuesta_mix.stopped,despedida.started,despedida.stopped,participant,session,date,expName,psychopyVersion,frameRate,
,,,,,,,,,,,,,,,25.778261200059205,None,space,1.770392200211063,31.735274799866602,None,,,,,,,,,,,,,,,,,,,,,,,,,,,,,,,,,,,,Esterix,001,2023_Mar_09_1934,stroop_task,3.2.3,61.95878993859027,
naranja,n,,0,0,0,12,,,,,,,,,,,,,,,33.63448129990138,None,['n'],0,[1.3200598999392241],33.58597119990736,None,,,,,,,,,,,,,,,,,,,,,,,,,,,,,Esterix,001,2023_Mar_09_1934,stroop_task,3.2.3,61.95878993859027,
verde,v,,0,1,1,18,,,,,,,,,,,,,,,34.98406659998,None,['v'],0,[0.6884761000983417],34.94621480000205,None,,,,,,,,,,,,,,,,,,,,,,,,,,,,,Esterix,001,2023_Mar_09_1934,stroop_task,3.2.3,61.95878993859027,
naranja,n,,0,2,2,15,,,,,,,,,,,,,,,35.7004354998935,None,['n'],0,[0.614356700098142],35.651857200078666,None,,,,,,,,,,,,,,,,,,,,,,,,,,,,,Esterix,001,2023_Mar_09_1934,stroop_task,3.2.3,61.95878993859027,
verde,v,,0,3,3,23,,,,,,,,,,,,,,,36.33373999991454,None,['v'],0,[0.5003243000246584],36.28796950005926,None,,,,,,,,,,,,,,,,,,,,,,,,,,,,,Esterix,001,2023_Mar_09_1934,stroop_task,3.2.3,61.95878993859027,
azul,a,,0,4,4,6,,,,,,,,,,,,,,,36.86678899987601,None,['a'],0,[0.5900140001904219],36.828163699945435,None,,,,,,,,,,,,,,,,,,,,,,,,,,,,,Esterix,001,2023_Mar_09_1934,stroop_task,3.2.3,61.95878993859027,
naranja,n,,0,5,5,9,,,,,,,,,,,,,,,37.499266600003466,None,['n'],0,[0.662906700046733],37.451500799972564,None,,,,,,,,,,,,,,,,,,,,,,,,,,,,,Esterix,001,2023_Mar_09_1934,stroop_task,3.2.3,61.95878993859027,
verde,v,,0,6,6,25,,,,,,,,,,,,,,,38.18330859998241,None,['v'],0,[0.6619291000533849],38.14119750005193,None,,,,,,,,,,,,,,,,,,,,,,,,,,,,,Esterix,001,2023_Mar_09_1934,stroop_task,3.2.3,61.95878993859027,
azul,a,,0,7,7,0,,,,,,,,,,,,,,,38.88239319995046,None,['a'],0,[0.6942355001810938],38.84372740006074,None,,,,,,,,,,,,,,,,,,,,,,,,,,,,,Esterix,001,2023_Mar_09_1934,stroop_task,3.2.3,61.95878993859027,
azul,a,,0,8,8,7,,,,,,,,,,,,,,,39.59938409994356,None,['a'],0,[0.6123398998752236],39.56636519986205,None,,,,,,,,,,,,,,,,,,,,,,,,,,,,,Esterix,001,2023_Mar_09_1934,stroop_task,3.2.3,61.95878993859027,
naranja,n,,0,9,9,16,,,,,,,,,,,,,,,40.24892030004412,None,['n'],0,[0.7460753000341356],40.20052439998835,None,,,,,,,,,,,,,,,,,,,,,,,,,,,,,Esterix,001,2023_Mar_09_1934,stroop_task,3.2.3,61.95878993859027,
lila,l,,0,10,10,28,,,,,,,,,,,,,,,41.01572489994578,None,['l'],0,[0.7610554001294076],40.97703639999963,None,,,,,,,,,,,,,,,,,,,,,,,,,,,,,Esterix,001,2023_Mar_09_1934,stroop_task,3.2.3,61.95878993859027,
naranja,n,,0,11,11,11,,,,,,,,,,,,,,,41.815051399869844,None,['n'],0,[0.6751063000410795],41.76750399987213,None,,,,,,,,,,,,,,,,,,,,,,,,,,,,,Esterix,001,2023_Mar_09_1934,stroop_task,3.2.3,61.95878993859027,
azul,a,,0,12,12,5,,,,,,,,,,,,,,,42.514465499902144,None,['a'],0,[0.6600109001155943],42.47797630005516,None,,,,,,,,,,,,,,,,,,,,,,,,,,,,,Esterix,001,2023_Mar_09_1934,stroop_task,3.2.3,61.95878993859027,
lila,l,,0,13,13,33,,,,,,,,,,,,,,,43.21490620006807,None,['l'],0,[0.6107898000627756],43.16732809995301,None,,,,,,,,,,,,,,,,,,,,,,,,,,,,,Esterix,001,2023_Mar_09_1934,stroop_task,3.2.3,61.95878993859027,
azul,a,,0,14,14,1,,,,,,,,,,,,,,,43.83112940005958,None,['a'],0,[1.2745854000095278],43.79950249986723,None,,,,,,,,,,,,,,,,,,,,,,,,,,,,,Esterix,001,2023_Mar_09_1934,stroop_task,3.2.3,61.95878993859027,
lila,l,,0,15,15,29,,,,,,,,,,,,,,,45.14659140002914,None,['l'],0,[0.576076400000602],45.105916099855676,None,,,,,,,,,,,,,,,,,,,,,,,,,,,,,Esterix,001,2023_Mar_09_1934,stroop_task,3.2.3,61.95878993859027,
verde,v,,0,16,16,17,,,,,,,,,,,,,,,45.74750129994936,None,['v'],0,[0.625320800114423],45.705307699972764,None,,,,,,,,,,,,,,,,,,,,,,,,,,,,,Esterix,001,2023_Mar_09_1934,stroop_task,3.2.3,61.95878993859027,
verde,v,,0,17,17,20,,,,,,,,,,,,,,,46.38164699985646,None,['v'],0,[0.532878200057894],46.35003470000811,None,,,,,,,,,,,,,,,,,,,,,,,,,,,,,Esterix,001,2023_Mar_09_1934,stroop_task,3.2.3,61.95878993859027,
naranja,n,,0,18,18,8,,,,,,,,,,,,,,,46.96347379987128,None,['n'],0,[0.6908358000218868],46.92721259989776,None,,,,,,,,,,,,,,,,,,,,,,,,,,,,,Esterix,001,2023_Mar_09_1934,stroop_task,3.2.3,61.95878993859027,
lila,l,,0,19,19,34,,,,,,,,,,,,,,,47.6961095998995,None,['l'],0,[0.7162941000424325],47.654306899989024,None,,,,,,,,,,,,,,,,,,,,,,,,,,,,,Esterix,001,2023_Mar_09_1934,stroop_task,3.2.3,61.95878993859027,
lila,l,,0,20,20,26,,,,,,,,,,,,,,,48.430879099993035,None,['l'],0,[0.5311326999217272],48.39942379994318,None,,,,,,,,,,,,,,,,,,,,,,,,,,,,,Esterix,001,2023_Mar_09_1934,stroop_task,3.2.3,61.95878993859027,
lila,l,,0,21,21,31,,,,,,,,,,,,,,,48.97990639996715,None,['l'],0,[0.5901919999159873],48.948130399920046,None,,,,,,,,,,,,,,,,,,,,,,,,,,,,,Esterix,001,2023_Mar_09_1934,stroop_task,3.2.3,61.95878993859027,
azul,a,,0,22,22,3,,,,,,,,,,,,,,,49.61262380005792,None,['a'],0,[0.7005736001301557],49.5743788999971,None,,,,,,,,,,,,,,,,,,,,,,,,,,,,,Esterix,001,2023_Mar_09_1934,stroop_task,3.2.3,61.95878993859027,
naranja,n,,0,23,23,10,,,,,,,,,,,,,,,50.34538020007312,None,['n'],0,[0.6196471999865025],50.30250860005617,None,,,,,,,,,,,,,,,,,,,,,,,,,,,,,Esterix,001,2023_Mar_09_1934,stroop_task,3.2.3,61.95878993859027,
naranja,n,,0,24,24,14,,,,,,,,,,,,,,,50.97918939986266,None,['n'],0,[0.5823291998822242],50.94756149989553,None,,,,,,,,,,,,,,,,,,,,,,,,,,,,,Esterix,001,2023_Mar_09_1934,stroop_task,3.2.3,61.95878993859027,
lila,l,,0,25,25,30,,,,,,,,,,,,,,,51.594870700035244,None,['l'],0,[0.7339937000069767],51.564160000067204,None,,,,,,,,,,,,,,,,,,,,,,,,,,,,,Esterix,001,2023_Mar_09_1934,stroop_task,3.2.3,61.95878993859027,
naranja,n,,0,26,26,13,,,,,,,,,,,,,,,52.37828750000335,None,['n'],0,[0.6805780997965485],52.33054309990257,None,,,,,,,,,,,,,,,,,,,,,,,,,,,,,Esterix,001,2023_Mar_09_1934,stroop_task,3.2.3,61.95878993859027,
lila,l,,0,27,27,27,,,,,,,,,,,,,,,53.0781113000121,None,['l'],0,[0.6839189999736845],53.03023219993338,None,,,,,,,,,,,,,,,,,,,,,,,,,,,,,Esterix,001,2023_Mar_09_1934,stroop_task,3.2.3,61.95878993859027,
azul,a,,0,28,28,4,,,,,,,,,,,,,,,53.7944801999256,None,['a'],0,[0.6801136001013219],53.7465482999105,None,,,,,,,,,,,,,,,,,,,,,,,,,,,,,Esterix,001,2023_Mar_09_1934,stroop_task,3.2.3,61.95878993859027,
azul,a,,0,29,29,2,,,,,,,,,,,,,,,54.47786720003933,None,['a'],0,[0.572337499819696],54.44570969999768,None,,,,,,,,,,,,,,,,,,,,,,,,,,,,,Esterix,001,2023_Mar_09_1934,stroop_task,3.2.3,61.95878993859027,
verde,v,,0,30,30,22,,,,,,,,,,,,,,,55.093673299998045,None,['v'],0,[0.6628548998851329],55.05119999987073,None,,,,,,,,,,,,,,,,,,,,,,,,,,,,,Esterix,001,2023_Mar_09_1934,stroop_task,3.2.3,61.95878993859027,
verde,v,,0,31,31,21,,,,,,,,,,,,,,,55.777355700032786,None,['v'],0,[0.593058800091967],55.74505849997513,None,,,,,,,,,,,,,,,,,,,,,,,,,,,,,Esterix,001,2023_Mar_09_1934,stroop_task,3.2.3,61.95878993859027,
verde,v,,0,32,32,24,,,,,,,,,,,,,,,56.393674900056794,None,['v'],0,[0.6072823000140488],56.362526499899104,None,,,,,,,,,,,,,,,,,,,,,,,,,,,,,Esterix,001,2023_Mar_09_1934,stroop_task,3.2.3,61.95878993859027,
lila,l,,0,33,33,32,,,,,,,,,,,,,,,57.02664320007898,None,['l'],0,[0.6543415999040008],56.99560249992646,None,,,,,,,,,,,,,,,,,,,,,,,,,,,,,Esterix,001,2023_Mar_09_1934,stroop_task,3.2.3,61.95878993859027,
verde,v,,0,34,34,19,,,,,,,,,,,,,,,57.72663739998825,None,['v'],0,[0.6349627000745386],57.67930800002068,None,,,,,,,,,,,,,,,,,,,,,,,,,,,,,Esterix,001,2023_Mar_09_1934,stroop_task,3.2.3,61.95878993859027,
,,,,,,,,,,,,,,,,,,,,,,,,,,,,58.34581690002233,None,space,3.8304067999124527,63.32477770000696,None,,,,,,,,,,,,,,,,,,,,,,,Esterix,001,2023_Mar_09_1934,stroop_task,3.2.3,61.95878993859027,
,l,"[0.004, -1, 0.004]",,,,,0,0,0,34,,,,,,,,,,,,,,,,,,,,,,,,67.24801669991575,None,['l'],0,[1.0145517000928521],67.19554809993133,None,,,,,,,,,,,,,,,,Esterix,001,2023_Mar_09_1934,stroop_task,3.2.3,61.95878993859027,
,v,"[-1, 0.04, -1]",,,,,0,1,1,23,,,,,,,,,,,,,,,,,,,,,,,,68.29178319987841,None,['v'],0,[0.702294799964875],68.24434249987826,None,,,,,,,,,,,,,,,,Esterix,001,2023_Mar_09_1934,stroop_task,3.2.3,61.95878993859027,
,v,"[-1, 0.04, -1]",,,,,0,2,2,17,,,,,,,,,,,,,,,,,,,,,,,,69.00716529996134,None,['v'],0,[0.5595682000275701],68.98651249986142,None,,,,,,,,,,,,,,,,Esterix,001,2023_Mar_09_1934,stroop_task,3.2.3,61.95878993859027,
,v,"[-1, 0.04, -1]",,,,,0,3,3,22,,,,,,,,,,,,,,,,,,,,,,,,69.60553379985504,None,['v'],0,[0.5791732000652701],69.57499230001122,None,,,,,,,,,,,,,,,,Esterix,001,2023_Mar_09_1934,stroop_task,3.2.3,61.95878993859027,
,n,"[1, 0.1, -1]",,,,,0,4,4,11,,,,,,,,,,,,,,,,,,,,,,,,70.20564319984987,None,['n'],0,[0.646904299966991],70.1721204998903,None,,,,,,,,,,,,,,,,Esterix,001,2023_Mar_09_1934,stroop_task,3.2.3,61.95878993859027,
,v,"[-1, 0.04, -1]",,,,,0,5,5,24,,,,,,,,,,,,,,,,,,,,,,,,70.87175829987973,None,['v'],0,[0.6033316000830382],70.83853850001469,None,,,,,,,,,,,,,,,,Esterix,001,2023_Mar_09_1934,stroop_task,3.2.3,61.95878993859027,
,l,"[0.004, -1, 0.004]",,,,,0,6,6,30,,,,,,,,,,,,,,,,,,,,,,,,71.52388079999946,None,['l'],0,[0.6470135999843478],71.4748513000086,None,,,,,,,,,,,,,,,,Esterix,001,2023_Mar_09_1934,stroop_task,3.2.3,61.95878993859027,
,a,"[-1, -1, 1]",,,,,0,7,7,0,,,,,,,,,,,,,,,,,,,,,,,,72.1712555999402,None,['a'],0,[0.6477567001711577],72.14019709988497,None,,,,,,,,,,,,,,,,Esterix,001,2023_Mar_09_1934,stroop_task,3.2.3,61.95878993859027,
,n,"[1, 0.1, -1]",,,,,0,8,8,16,,,,,,,,,,,,,,,,,,,,,,,,72.85462630004622,None,['n'],0,[0.6512198999989778],72.81618309998885,None,,,,,,,,,,,,,,,,Esterix,001,2023_Mar_09_1934,stroop_task,3.2.3,61.95878993859027,
,v,"[-1, 0.04, -1]",,,,,0,9,9,20,,,,,,,,,,,,,,,,,,,,,,,,73.52351349988021,None,['v'],0,[0.6262821999844164],73.48757150000893,None,,,,,,,,,,,,,,,,Esterix,001,2023_Mar_09_1934,stroop_task,3.2.3,61.95878993859027,
,l,"[0.004, -1, 0.004]",,,,,0,10,10,28,,,,,,,,,,,,,,,,,,,,,,,,74.17317470000125,None,['l'],0,[0.6649660000111908],74.1373504998628,None,,,,,,,,,,,,,,,,Esterix,001,2023_Mar_09_1934,stroop_task,3.2.3,61.95878993859027,
,n,"[1, 0.1, -1]",,,,,0,11,11,8,,,,,,,,,,,,,,,,,,,,,,,,74.85651469998993,None,['n'],0,[0.7820514000486583],74.82022159988992,None,,,,,,,,,,,,,,,,Esterix,001,2023_Mar_09_1934,stroop_task,3.2.3,61.95878993859027,
,a,"[-1, -1, 1]",,,,,0,12,12,4,,,,,,,,,,,,,,,,,,,,,,,,75.65624799998477,None,['a'],0,[0.700504400068894],75.62114449986257,None,,,,,,,,,,,,,,,,Esterix,001,2023_Mar_09_1934,stroop_task,3.2.3,61.95878993859027,
,a,"[-1, -1, 1]",,,,,0,13,13,3,,,,,,,,,,,,,,,,,,,,,,,,76.38661829987541,None,['a'],0,[0.632281000027433],76.35597530007362,None,,,,,,,,,,,,,,,,Esterix,001,2023_Mar_09_1934,stroop_task,3.2.3,61.95878993859027,
,l,"[0.004, -1, 0.004]",,,,,0,14,14,29,,,,,,,,,,,,,,,,,,,,,,,,77.0715707000345,None,['l'],0,[0.7638858000282198],77.03155289986171,None,,,,,,,,,,,,,,,,Esterix,001,2023_Mar_09_1934,stroop_task,3.2.3,61.95878993859027,
,a,"[-1, -1, 1]",,,,,0,15,15,7,,,,,,,,,,,,,,,,,,,,,,,,77.85260510002263,None,['a'],0,[0.7165735000744462],77.82117279991508,None,,,,,,,,,,,,,,,,Esterix,001,2023_Mar_09_1934,stroop_task,3.2.3,61.95878993859027,
,v,"[-1, 0.04, -1]",,,,,0,16,16,25,,,,,,,,,,,,,,,,,,,,,,,,78.58846260001883,None,['v'],0,[1.0189032000489533],78.55245599988848,None,,,,,,,,,,,,,,,,Esterix,001,2023_Mar_09_1934,stroop_task,3.2.3,61.95878993859027,
,l,"[0.004, -1, 0.004]",,,,,0,17,17,33,,,,,,,,,,,,,,,,,,,,,,,,79.63525990000926,None,['l'],0,[0.7103489998262376],79.59766969992779,None,,,,,,,,,,,,,,,,Esterix,001,2023_Mar_09_1934,stroop_task,3.2.3,61.95878993859027,
,l,"[0.004, -1, 0.004]",,,,,0,18,18,27,,,,,,,,,,,,,,,,,,,,,,,,80.3685083000455,None,['l'],0,[0.6318091999273747],80.3379152000416,None,,,,,,,,,,,,,,,,Esterix,001,2023_Mar_09_1934,stroop_task,3.2.3,61.95878993859027,
,n,"[1, 0.1, -1]",,,,,0,19,19,15,,,,,,,,,,,,,,,,,,,,,,,,81.02121689985506,None,['n'],0,[0.587759800022468],80.98501449986361,None,,,,,,,,,,,,,,,,Esterix,001,2023_Mar_09_1934,stroop_task,3.2.3,61.95878993859027,
,n,"[1, 0.1, -1]",,,,,0,20,20,12,,,,,,,,,,,,,,,,,,,,,,,,81.63480610004626,None,['n'],0,[0.5983872001525015],81.60333229997195,None,,,,,,,,,,,,,,,,Esterix,001,2023_Mar_09_1934,stroop_task,3.2.3,61.95878993859027,
,l,"[0.004, -1, 0.004]",,,,,0,21,21,31,,,,,,,,,,,,,,,,,,,,,,,,82.2513983999379,None,['l'],0,[0.926255099941045],82.22091789986007,None,,,,,,,,,,,,,,,,Esterix,001,2023_Mar_09_1934,stroop_task,3.2.3,61.95878993859027,
,l,"[0.004, -1, 0.004]",,,,,0,22,22,32,,,,,,,,,,,,,,,,,,,,,,,,83.20093140006065,None,['l'],0,[1.490575300063938],83.16758959996514,None,,,,,,,,,,,,,,,,Esterix,001,2023_Mar_09_1934,stroop_task,3.2.3,61.95878993859027,
,v,"[-1, 0.04, -1]",,,,,0,23,23,18,,,,,,,,,,,,,,,,,,,,,,,,84.71693810005672,None,['v'],0,[0.7265063000377268],84.6838725998532,None,,,,,,,,,,,,,,,,Esterix,001,2023_Mar_09_1934,stroop_task,3.2.3,61.95878993859027,
,l,"[0.004, -1, 0.004]",,,,,0,24,24,26,,,,,,,,,,,,,,,,,,,,,,,,85.46667089988478,None,['l'],0,[0.6002913999836892],85.43466889997944,None,,,,,,,,,,,,,,,,Esterix,001,2023_Mar_09_1934,stroop_task,3.2.3,61.95878993859027,
,a,"[-1, -1, 1]",,,,,0,25,25,6,,,,,,,,,,,,,,,,,,,,,,,,86.08403129992075,None,['a'],0,[0.6317939998116344],86.0525314998813,None,,,,,,,,,,,,,,,,Esterix,001,2023_Mar_09_1934,stroop_task,3.2.3,61.95878993859027,
,v,"[-1, 0.04, -1]",,,,,0,26,26,19,,,,,,,,,,,,,,,,,,,,,,,,86.7333102999255,None,['v'],0,[0.733449500054121],86.70030030002818,None,,,,,,,,,,,,,,,,Esterix,001,2023_Mar_09_1934,stroop_task,3.2.3,61.95878993859027,
,n,"[1, 0.1, -1]",,,,,0,27,27,13,,,,,,,,,,,,,,,,,,,,,,,,87.48458399996161,None,['n'],0,[0.6399655998684466],87.45075209997594,None,,,,,,,,,,,,,,,,Esterix,001,2023_Mar_09_1934,stroop_task,3.2.3,61.95878993859027,
,n,"[1, 0.1, -1]",,,,,0,28,28,9,,,,,,,,,,,,,,,,,,,,,,,,88.16600169986486,None,['n'],0,[0.6184815000742674],88.11971489991993,None,,,,,,,,,,,,,,,,Esterix,001,2023_Mar_09_1934,stroop_task,3.2.3,61.95878993859027,
,n,"[1, 0.1, -1]",,,,,0,29,29,14,,,,,,,,,,,,,,,,,,,,,,,,88.7997806998901,None,['n'],0,[0.5568395999725908],88.76609449996613,None,,,,,,,,,,,,,,,,Esterix,001,2023_Mar_09_1934,stroop_task,3.2.3,61.95878993859027,
,n,"[1, 0.1, -1]",,,,,0,30,30,10,,,,,,,,,,,,,,,,,,,,,,,,89.38218239997514,None,['n'],0,[0.595769900130108],89.35075769992545,None,,,,,,,,,,,,,,,,Esterix,001,2023_Mar_09_1934,stroop_task,3.2.3,61.95878993859027,
,a,"[-1, -1, 1]",,,,,0,31,31,1,,,,,,,,,,,,,,,,,,,,,,,,89.99824719992466,None,"['v', 'a']",0,"[0.6925637000240386, 1.1729750998783857]",89.96542489994317,None,,,,,,,,,,,,,,,,Esterix,001,2023_Mar_09_1934,stroop_task,3.2.3,61.95878993859027,
,a,"[-1, -1, 1]",,,,,0,32,32,5,,,,,,,,,,,,,,,,,,,,,,,,91.21500659990124,None,['a'],0,[0.6655039000324905],91.16868350002915,None,,,,,,,,,,,,,,,,Esterix,001,2023_Mar_09_1934,stroop_task,3.2.3,61.95878993859027,
,v,"[-1, 0.04, -1]",,,,,0,33,33,21,,,,,,,,,,,,,,,,,,,,,,,,91.89851580001414,None,['v'],0,[0.7206633000168949],91.86555119999684,None,,,,,,,,,,,,,,,,Esterix,001,2023_Mar_09_1934,stroop_task,3.2.3,61.95878993859027,
,a,"[-1, -1, 1]",,,,,0,34,34,2,,,,,,,,,,,,,,,,,,,,,,,,92.64788930001669,None,['a'],0,[0.6899570999667048],92.61630270001478,None,,,,,,,,,,,,,,,,Esterix,001,2023_Mar_09_1934,stroop_task,3.2.3,61.95878993859027,
,,,,,,,,,,,,,,,,,,,,,,,,,,,,,,,,,,,,,,,,,93.33492269995622,None,space,5.361871700035408,98.31263329996727,None,,,,,,,,,,Esterix,001,2023_Mar_09_1934,stroop_task,3.2.3,61.95878993859027,
lila,a,"[-1, -1, 1]",,,,,,,,,0,0,0,5,,,,,,,,,,,,,,,,,,,,,,,,,,,,,,,,,103.76094860001467,None,['a'],0,[2.371842300053686],103.71047349995933,None,,,Esterix,001,2023_Mar_09_1934,stroop_task,3.2.3,61.95878993859027,
naranja,a,"[-1, -1, 1]",,,,,,,,,0,1,1,3,,,,,,,,,,,,,,,,,,,,,,,,,,,,,,,,,106.1601962998975,None,['a'],0,[0.8147581999655813],106.11536940000951,None,,,Esterix,001,2023_Mar_09_1934,stroop_task,3.2.3,61.95878993859027,
lila,v,"[-1, 0.04, -1]",,,,,,,,,0,2,2,25,,,,,,,,,,,,,,,,,,,,,,,,,,,,,,,,,107.00919190002605,None,['v'],0,[0.8013824000954628],106.96877669985406,None,,,Esterix,001,2023_Mar_09_1934,stroop_task,3.2.3,61.95878993859027,
lila,n,"[1, 0.1, -1]",,,,,,,,,0,3,3,15,,,,,,,,,,,,,,,,,,,,,,,,,,,,,,,,,107.82727460004389,None,['n'],0,[0.8227353000547737],107.79562620003708,None,,,Esterix,001,2023_Mar_09_1934,stroop_task,3.2.3,61.95878993859027,
lila,v,"[-1, 0.04, -1]",,,,,,,,,0,4,4,23,,,,,,,,,,,,,,,,,,,,,,,,,,,,,,,,,108.69280819990672,None,['v'],0,[0.8684714001137763],108.6454695998691,None,,,Esterix,001,2023_Mar_09_1934,stroop_task,3.2.3,61.95878993859027,
verde,l,"[0.004, -1, 0.004]",,,,,,,,,0,5,5,31,,,,,,,,,,,,,,,,,,,,,,,,,,,,,,,,,109.5922983000055,None,['l'],0,[1.1157130000647157],109.54404369997792,None,,,Esterix,001,2023_Mar_09_1934,stroop_task,3.2.3,61.95878993859027,
verde,l,"[0.004, -1, 0.004]",,,,,,,,,0,6,6,30,,,,,,,,,,,,,,,,,,,,,,,,,,,,,,,,,110.70979280001484,None,['l'],0,[0.5810225000604987],110.67803060007282,None,,,Esterix,001,2023_Mar_09_1934,stroop_task,3.2.3,61.95878993859027,
azul,l,"[0.004, -1, 0.004]",,,,,,,,,0,7,7,27,,,,,,,,,,,,,,,,,,,,,,,,,,,,,,,,,111.324946800014,None,"['a', 'l']",0,"[0.6767868001479656, 1.1572204001713544]",111.28515739995055,None,,,Esterix,001,2023_Mar_09_1934,stroop_task,3.2.3,61.95878993859027,
verde,l,"[0.004, -1, 0.004]",,,,,,,,,0,8,8,29,,,,,,,,,,,,,,,,,,,,,,,,,,,,,,,,,112.50760929984972,None,['l'],0,[0.7606270001269877],112.46558710001409,None,,,Esterix,001,2023_Mar_09_1934,stroop_task,3.2.3,61.95878993859027,
lila,a,"[-1, -1, 1]",,,,,,,,,0,9,9,6,,,,,,,,,,,,,,,,,,,,,,,,,,,,,,,,,113.29084739997052,None,['a'],0,[0.7662526001222432],113.24345900001936,None,,,Esterix,001,2023_Mar_09_1934,stroop_task,3.2.3,61.95878993859027,
lila,n,"[1, 0.1, -1]",,,,,,,,,0,10,10,14,,,,,,,,,,,,,,,,,,,,,,,,,,,,,,,,,114.07417150004767,None,['n'],0,[0.6983170998282731],114.04021240002476,None,,,Esterix,001,2023_Mar_09_1934,stroop_task,3.2.3,61.95878993859027,
verde,a,"[-1, -1, 1]",,,,,,,,,0,11,11,1,,,,,,,,,,,,,,,,,,,,,,,,,,,,,,,,,114.80765129998326,None,['a'],0,[0.6676745999138802],114.7661329000257,None,,,Esterix,001,2023_Mar_09_1934,stroop_task,3.2.3,61.95878993859027,
naranja,v,"[-1, 0.04, -1]",,,,,,,,,0,12,12,22,,,,,,,,,,,,,,,,,,,,,,,,,,,,,,,,,115.50671029998921,None,['v'],0,[2.2479968001134694],115.45839220006019,None,,,Esterix,001,2023_Mar_09_1934,stroop_task,3.2.3,61.95878993859027,
naranja,l,"[0.004, -1, 0.004]",,,,,,,,,0,13,13,34,,,,,,,,,,,,,,,,,,,,,,,,,,,,,,,,,117.75604570005089,None,['l'],0,[0.9196029999293387],117.72266789991409,None,,,Esterix,001,2023_Mar_09_1934,stroop_task,3.2.3,61.95878993859027,
naranja,a,"[-1, -1, 1]",,,,,,,,,0,14,14,2,,,,,,,,,,,,,,,,,,,,,,,,,,,,,,,,,118.7064570998773,None,['a'],0,[0.855994800105691],118.6737927000504,None,,,Esterix,001,2023_Mar_09_1934,stroop_task,3.2.3,61.95878993859027,
azul,l,"[0.004, -1, 0.004]",,,,,,,,,0,15,15,26,,,,,,,,,,,,,,,,,,,,,,,,,,,,,,,,,119.60603259992786,None,['l'],0,[0.9943903000093997],119.56745329988189,None,,,Esterix,001,2023_Mar_09_1934,stroop_task,3.2.3,61.95878993859027,
verde,n,"[1, 0.1, -1]",,,,,,,,,0,16,16,12,,,,,,,,,,,,,,,,,,,,,,,,,,,,,,,,,120.62186850002035,None,['n'],0,[1.2919050001073629],120.59019889985211,None,,,Esterix,001,2023_Mar_09_1934,stroop_task,3.2.3,61.95878993859027,
azul,l,"[0.004, -1, 0.004]",,,,,,,,,0,17,17,28,,,,,,,,,,,,,,,,,,,,,,,,,,,,,,,,,121.9549259999767,None,['l'],0,[0.8969402001239359],121.91307889996096,None,,,Esterix,001,2023_Mar_09_1934,stroop_task,3.2.3,61.95878993859027,
naranja,l,"[0.004, -1, 0.004]",,,,,,,,,0,18,18,32,,,,,,,,,,,,,,,,,,,,,,,,,,,,,,,,,122.8875080998987,None,['l'],0,[0.6588425999507308],122.83975879987702,None,,,Esterix,001,2023_Mar_09_1934,stroop_task,3.2.3,61.95878993859027,
azul,n,"[1, 0.1, -1]",,,,,,,,,0,19,19,10,,,,,,,,,,,,,,,,,,,,,,,,,,,,,,,,,123.57072780001909,None,"['a', 'n']",0,"[0.7871319002006203, 1.1159774002153426]",123.5359785000328,None,,,Esterix,001,2023_Mar_09_1934,stroop_task,3.2.3,61.95878993859027,
verde,n,"[1, 0.1, -1]",,,,,,,,,0,20,20,13,,,,,,,,,,,,,,,,,,,,,,,,,,,,,,,,,124.74168400000781,None,['n'],0,[0.7094471000600606],124.6770843998529,None,,,Esterix,001,2023_Mar_09_1934,stroop_task,3.2.3,61.95878993859027,
naranja,v,"[-1, 0.04, -1]",,,,,,,,,0,21,21,20,,,,,,,,,,,,,,,,,,,,,,,,,,,,,,,,,125.45313340006396,None,['v'],0,[0.5729941001627594],125.40499229985289,None,,,Esterix,001,2023_Mar_09_1934,stroop_task,3.2.3,61.95878993859027,
verde,a,"[-1, -1, 1]",,,,,,,,,0,22,22,0,,,,,,,,,,,,,,,,,,,,,,,,,,,,,,,,,126.0528843998909,None,['a'],0,[0.6531793000176549],126.00463330000639,None,,,Esterix,001,2023_Mar_09_1934,stroop_task,3.2.3,61.95878993859027,
azul,v,"[-1, 0.04, -1]",,,,,,,,,0,23,23,19,,,,,,,,,,,,,,,,,,,,,,,,,,,,,,,,,126.71977309999056,None,['v'],0,[0.9061515999492258],126.68803619989194,None,,,Esterix,001,2023_Mar_09_1934,stroop_task,3.2.3,61.95878993859027,
lila,a,"[-1, -1, 1]",,,,,,,,,0,24,24,7,,,,,,,,,,,,,,,,,,,,,,,,,,,,,,,,,127.67141279997304,None,['a'],0,[1.594671200029552],127.63153550005518,None,,,Esterix,001,2023_Mar_09_1934,stroop_task,3.2.3,61.95878993859027,
azul,n,"[1, 0.1, -1]",,,,,,,,,0,25,25,9,,,,,,,,,,,,,,,,,,,,,,,,,,,,,,,,,129.3017704000231,None,['n'],0,[1.1730460999533534],129.26135899988003,None,,,Esterix,001,2023_Mar_09_1934,stroop_task,3.2.3,61.95878993859027,
lila,v,"[-1, 0.04, -1]",,,,,,,,,0,26,26,24,,,,,,,,,,,,,,,,,,,,,,,,,,,,,,,,,130.50120419985615,None,"['l', 'v']",0,"[1.326969400048256, 1.8627212999854237]",130.45897289994173,None,,,Esterix,001,2023_Mar_09_1934,stroop_task,3.2.3,61.95878993859027,
verde,n,"[1, 0.1, -1]",,,,,,,,,0,27,27,11,,,,,,,,,,,,,,,,,,,,,,,,,,,,,,,,,132.4009998999536,None,['n'],0,[0.7117378001566976],132.36242390004918,None,,,Esterix,001,2023_Mar_09_1934,stroop_task,3.2.3,61.95878993859027,
naranja,a,"[-1, -1, 1]",,,,,,,,,0,28,28,4,,,,,,,,,,,,,,,,,,,,,,,,,,,,,,,,,133.15100109996274,None,['a'],0,[0.7131010999437422],133.11297259991989,None,,,Esterix,001,2023_Mar_09_1934,stroop_task,3.2.3,61.95878993859027,
azul,n,"[1, 0.1, -1]",,,,,,,,,0,29,29,8,,,,,,,,,,,,,,,,,,,,,,,,,,,,,,,,,133.9007607998792,None,"['v', 'n']",0,"[1.0281058999244124, 1.322591200005263]",133.85537309991196,None,,,Esterix,001,2023_Mar_09_1934,stroop_task,3.2.3,61.95878993859027,
azul,v,"[-1, 0.04, -1]",,,,,,,,,0,30,30,18,,,,,,,,,,,,,,,,,,,,,,,,,,,,,,,,,135.23347479989752,None,['v'],0,[0.615705399774015],135.20205989992246,None,,,Esterix,001,2023_Mar_09_1934,stroop_task,3.2.3,61.95878993859027,
lila,n,"[1, 0.1, -1]",,,,,,,,,0,31,31,16,,,,,,,,,,,,,,,,,,,,,,,,,,,,,,,,,135.8828010999132,None,['n'],0,[0.5902150999754667],135.85186679987237,None,,,Esterix,001,2023_Mar_09_1934,stroop_task,3.2.3,61.95878993859027,
azul,v,"[-1, 0.04, -1]",,,,,,,,,0,32,32,17,,,,,,,,,,,,,,,,,,,,,,,,,,,,,,,,,136.5013838999439,None,['v'],0,[0.5901780999265611],136.46848409995437,None,,,Esterix,001,2023_Mar_09_1934,stroop_task,3.2.3,61.95878993859027,
naranja,v,"[-1, 0.04, -1]",,,,,,,,,0,33,33,21,,,,,,,,,,,,,,,,,,,,,,,,,,,,,,,,,137.13315550005063,None,['v'],0,[0.7468090998008847],137.08781960001215,None,,,Esterix,001,2023_Mar_09_1934,stroop_task,3.2.3,61.95878993859027,
naranja,l,"[0.004, -1, 0.004]",,,,,,,,,0,34,34,33,,,,,,,,,,,,,,,,,,,,,,,,,,,,,,,,,137.8992335998919,None,['l'],0,[0.6401636002119631],137.86591010005213,None,,,Esterix,001,2023_Mar_09_1934,stroop_task,3.2.3,61.95878993859027,
,,,,,,,,,,,,,,,,,,,,,,,,,,,,,,,,,,,,,,,,,,,,,,,,,,,,,,138.53506550006568,None,,,,,,,
