timepresentation,posx,posy,trials.thisRepN,trials.thisTrialN,trials.thisN,trials.thisIndex,trials_2.thisRepN,trials_2.thisTrialN,trials_2.thisN,trials_2.thisIndex,trials_3.thisRepN,trials_3.thisTrialN,trials_3.thisN,trials_3.thisIndex,trials_4.thisRepN,trials_4.thisTrialN,trials_4.thisN,trials_4.thisIndex,trials_5.thisRepN,trials_5.thisTrialN,trials_5.thisN,trials_5.thisIndex,trials_6.thisRepN,trials_6.thisTrialN,trials_6.thisN,trials_6.thisIndex,trials_7.thisRepN,trials_7.thisTrialN,trials_7.thisN,trials_7.thisIndex,trials_8.thisRepN,trials_8.thisTrialN,trials_8.thisN,trials_8.thisIndex,trials_9.thisRepN,trials_9.thisTrialN,trials_9.thisN,trials_9.thisIndex,trials_10.thisRepN,trials_10.thisTrialN,trials_10.thisN,trials_10.thisIndex,trials_11.thisRepN,trials_11.thisTrialN,trials_11.thisN,trials_11.thisIndex,trials_12.thisRepN,trials_12.thisTrialN,trials_12.thisN,trials_12.thisIndex,trials_13.thisRepN,trials_13.thisTrialN,trials_13.thisN,trials_13.thisIndex,trials_14.thisRepN,trials_14.thisTrialN,trials_14.thisN,trials_14.thisIndex,trials_15.thisRepN,trials_15.thisTrialN,trials_15.thisN,trials_15.thisIndex,trials_16.thisRepN,trials_16.thisTrialN,trials_16.thisN,trials_16.thisIndex,thisRow.t,notes,portada.started,image_5.started,text_6.started,portada.stopped,instructions.started,text_5.started,key_resp_5.started,instructions.stopped,key_resp_5.keys,key_resp_5.rt,key_resp_5.duration,Ronda_1.started,text_7.started,Ronda_1.stopped,control.started,image.started,key_resp.started,control.stopped,key_resp.keys,key_resp.rt,key_resp.duration,music.started,music.stopped,key_resp_2.keys,music_words.started,music_words.stopped,key_resp_3.keys,music_video.started,music_video.stopped,Key_resp_4.keys,Ronda_2.started,text_8.started,Ronda_2.stopped,control2.started,control2.stopped,key_resp_6.keys,music2.started,image_7.started,key_resp_7.started,music2.stopped,key_resp_7.keys,key_resp_7.rt,key_resp_7.duration,music_words2.started,music_words2.stopped,key_resp_8.keys,music_video2.started,music_video2.stopped,Key_resp.keys,Ronda_3.started,text_9.started,Ronda_3.stopped,control3.started,control3.stopped,key_resp_9.keys,music3.started,music3.stopped,key_resp_10.keys,music_words3.started,image_12.started,key_resp_11.started,music_words3.stopped,key_resp_11.keys,key_resp_11.rt,key_resp_11.duration,music_video3.started,music_video3.stopped,Key_resp_2.keys,Ronda_4.started,text_10.started,Ronda_4.stopped,control4.started,control4.stopped,key_resp_12.keys,music4.started,music4.stopped,key_resp_13.keys,music_words4.started,music_words4.stopped,key_resp_14.keys,music_video4.started,image_17.started,Key_resp_3.started,music_video4.stopped,Key_resp_3.keys,Key_resp_3.rt,Key_resp_3.duration,final.started,text_4.started,text_4.stopped,final.stopped,participant,Edad,Sexo,date,expName,psychopyVersion,frameRate,expStart,
,,,,,,,,,,,,,,,,,,,,,,,,,,,,,,,,,,,,,,,,,,,,,,,,,,,,,,,,,,,,,,,,,,,,,0.006722999969497323,0.02861869998741895,0.02861869998741895,3.0163495999295264,3.0163603000110015,3.033186199958436,6.0027526000048965,6.137452999944799,space,0.11810409999452531,None,,,,,,,,,,,,,,,,,,,,,,,,,,,,,,,,,,,,,,,,,,,,,,,,,,,,,,,,,,,,,,,,,,,,,,,,,,,,,,,,,277114,457303,Hombre,2024-09-18_14h27.41.415,tarea_iceberg,2023.2.3,59.916548251821126,2024-09-18 14h28.08.050583 +0200,
14,-0.1,0.05,0,0,0,2,,,,,,,,,,,,,,,,,,,,,,,,,,,,,,,,,,,,,,,,,,,,,,,,,,,,,,,,,,,,,8.20549469999969,,,,,,,,,,,,,6.137474199989811,6.152691099909134,8.138162099989131,8.190765899955295,22.151709700003266,22.151709700003266,22.55920029990375,space,0.3925411000382155,None,,,,,,,,,,,,,,,,,,,,,,,,,,,,,,,,,,,,,,,,,,,,,,,,,,,,,,,,,,,,,,,,,,,,,,,277114,457303,Hombre,2024-09-18_14h27.41.415,tarea_iceberg,2023.2.3,59.916548251821126,2024-09-18 14h28.08.050583 +0200,
14,-0.6,0.05,0,1,1,1,,,,,,,,,,,,,,,,,,,,,,,,,,,,,,,,,,,,,,,,,,,,,,,,,,,,,,,,,,,,,22.575226399931125,,,,,,,,,,,,,,,,22.559694799943827,36.56629149999935,36.56629149999935,37.002693399903364,space,0.434189600055106,None,,,,,,,,,,,,,,,,,,,,,,,,,,,,,,,,,,,,,,,,,,,,,,,,,,,,,,,,,,,,,,,,,,,,,,,277114,457303,Hombre,2024-09-18_14h27.41.415,tarea_iceberg,2023.2.3,59.916548251821126,2024-09-18 14h28.08.050583 +0200,
14,-0.7,0.05,0,2,2,3,,,,,,,,,,,,,,,,,,,,,,,,,,,,,,,,,,,,,,,,,,,,,,,,,,,,,,,,,,,,,37.02676239993889,,,,,,,,,,,,,,,,37.00296409998555,51.01385129999835,51.01385129999835,51.3998614999,space,0.3780423999996856,None,,,,,,,,,,,,,,,,,,,,,,,,,,,,,,,,,,,,,,,,,,,,,,,,,,,,,,,,,,,,,,,,,,,,,,,277114,457303,Hombre,2024-09-18_14h27.41.415,tarea_iceberg,2023.2.3,59.916548251821126,2024-09-18 14h28.08.050583 +0200,
5,-0.2,0.05,0,3,3,6,,,,,,,,,,,,,,,,,,,,,,,,,,,,,,,,,,,,,,,,,,,,,,,,,,,,,,,,,,,,,51.43024419993162,,,,,,,,,,,,,,,,51.40012999996543,56.40292999998201,56.40292999998201,56.86183499998879,space,0.4370082000968978,None,,,,,,,,,,,,,,,,,,,,,,,,,,,,,,,,,,,,,,,,,,,,,,,,,,,,,,,,,,,,,,,,,,,,,,,277114,457303,Hombre,2024-09-18_14h27.41.415,tarea_iceberg,2023.2.3,59.916548251821126,2024-09-18 14h28.08.050583 +0200,
15,-0.6,0.05,0,4,4,5,,,,,,,,,,,,,,,,,,,,,,,,,,,,,,,,,,,,,,,,,,,,,,,,,,,,,,,,,,,,,56.87840129993856,,,,,,,,,,,,,,,,56.86229620000813,71.86925849993713,71.86925849993713,72.27066139993258,space,0.39441940002143383,None,,,,,,,,,,,,,,,,,,,,,,,,,,,,,,,,,,,,,,,,,,,,,,,,,,,,,,,,,,,,,,,,,,,,,,,277114,457303,Hombre,2024-09-18_14h27.41.415,tarea_iceberg,2023.2.3,59.916548251821126,2024-09-18 14h28.08.050583 +0200,
13,-0.2,0.05,0,5,5,4,,,,,,,,,,,,,,,,,,,,,,,,,,,,,,,,,,,,,,,,,,,,,,,,,,,,,,,,,,,,,72.2943096999079,,,,,,,,,,,,,,,,72.27091590000782,85.28122599993367,85.28122599993367,85.72297439991962,space,0.4298346000723541,None,,,,,,,,,,,,,,,,,,,,,,,,,,,,,,,,,,,,,,,,,,,,,,,,,,,,,,,,,,,,,,,,,,,,,,,277114,457303,Hombre,2024-09-18_14h27.41.415,tarea_iceberg,2023.2.3,59.916548251821126,2024-09-18 14h28.08.050583 +0200,
4,0.1,0.05,0,6,6,7,,,,,,,,,,,,,,,,,,,,,,,,,,,,,,,,,,,,,,,,,,,,,,,,,,,,,,,,,,,,,85.73959619994275,,,,,,,,,,,,,,,,85.72328159993049,89.73712730000261,89.73712730000261,90.20416339999065,space,0.45451940002385527,None,,,,,,,,,,,,,,,,,,,,,,,,,,,,,,,,,,,,,,,,,,,,,,,,,,,,,,,,,,,,,,,,,,,,,,,277114,457303,Hombre,2024-09-18_14h27.41.415,tarea_iceberg,2023.2.3,59.916548251821126,2024-09-18 14h28.08.050583 +0200,
4,-0.7,0.05,0,7,7,0,,,,,,,,,,,,,,,,,,,,,,,,,,,,,,,,,,,,,,,,,,,,,,,,,,,,,,,,,,,,,90.22700219997205,,,,,,,,,,,,,,,,90.20444130001124,94.20709039992653,94.20709039992653,94.62666969990823,space,0.4168735999846831,None,,,,,,,,,,,,,,,,,,,,,,,,,,,,,,,,,,,,,,,,,,,,,,,,,,,,,,,,,,,,,,,,,,,,,,,277114,457303,Hombre,2024-09-18_14h27.41.415,tarea_iceberg,2023.2.3,59.916548251821126,2024-09-18 14h28.08.050583 +0200,
4,-0.7,0.05,,,,,0,0,0,0,,,,,,,,,,,,,,,,,,,,,,,,,,,,,,,,,,,,,,,,,,,,,,,,,,,,,,,,,94.86540799995419,,,,,,,,,,,,,,,,,,,,,,,94.64087639993522,94.64578739996068,None,,,,,,,,,,,,,,,,,,,,,,,,,,,,,,,,,,,,,,,,,,,,,,,,,,,,,,,,,,,,,,,,,,,,277114,457303,Hombre,2024-09-18_14h27.41.415,tarea_iceberg,2023.2.3,59.916548251821126,2024-09-18 14h28.08.050583 +0200,
5,-0.2,0.05,,,,,0,1,1,6,,,,,,,,,,,,,,,,,,,,,,,,,,,,,,,,,,,,,,,,,,,,,,,,,,,,,,,,,94.86540799995419,,,,,,,,,,,,,,,,,,,,,,,94.64599240000825,94.6500037999358,None,,,,,,,,,,,,,,,,,,,,,,,,,,,,,,,,,,,,,,,,,,,,,,,,,,,,,,,,,,,,,,,,,,,,277114,457303,Hombre,2024-09-18_14h27.41.415,tarea_iceberg,2023.2.3,59.916548251821126,2024-09-18 14h28.08.050583 +0200,
4,0.1,0.05,,,,,0,2,2,7,,,,,,,,,,,,,,,,,,,,,,,,,,,,,,,,,,,,,,,,,,,,,,,,,,,,,,,,,94.86540799995419,,,,,,,,,,,,,,,,,,,,,,,94.65018999995664,94.65421269997023,None,,,,,,,,,,,,,,,,,,,,,,,,,,,,,,,,,,,,,,,,,,,,,,,,,,,,,,,,,,,,,,,,,,,,277114,457303,Hombre,2024-09-18_14h27.41.415,tarea_iceberg,2023.2.3,59.916548251821126,2024-09-18 14h28.08.050583 +0200,
14,-0.7,0.05,,,,,0,3,3,3,,,,,,,,,,,,,,,,,,,,,,,,,,,,,,,,,,,,,,,,,,,,,,,,,,,,,,,,,94.86540799995419,,,,,,,,,,,,,,,,,,,,,,,94.65438689989969,94.65848479990382,None,,,,,,,,,,,,,,,,,,,,,,,,,,,,,,,,,,,,,,,,,,,,,,,,,,,,,,,,,,,,,,,,,,,,277114,457303,Hombre,2024-09-18_14h27.41.415,tarea_iceberg,2023.2.3,59.916548251821126,2024-09-18 14h28.08.050583 +0200,
13,-0.2,0.05,,,,,0,4,4,4,,,,,,,,,,,,,,,,,,,,,,,,,,,,,,,,,,,,,,,,,,,,,,,,,,,,,,,,,94.86540799995419,,,,,,,,,,,,,,,,,,,,,,,94.65869429998565,94.66253899992444,None,,,,,,,,,,,,,,,,,,,,,,,,,,,,,,,,,,,,,,,,,,,,,,,,,,,,,,,,,,,,,,,,,,,,277114,457303,Hombre,2024-09-18_14h27.41.415,tarea_iceberg,2023.2.3,59.916548251821126,2024-09-18 14h28.08.050583 +0200,
15,-0.6,0.05,,,,,0,5,5,5,,,,,,,,,,,,,,,,,,,,,,,,,,,,,,,,,,,,,,,,,,,,,,,,,,,,,,,,,94.86540799995419,,,,,,,,,,,,,,,,,,,,,,,94.66274489997886,94.66670609998982,None,,,,,,,,,,,,,,,,,,,,,,,,,,,,,,,,,,,,,,,,,,,,,,,,,,,,,,,,,,,,,,,,,,,,277114,457303,Hombre,2024-09-18_14h27.41.415,tarea_iceberg,2023.2.3,59.916548251821126,2024-09-18 14h28.08.050583 +0200,
14,-0.1,0.05,,,,,0,6,6,2,,,,,,,,,,,,,,,,,,,,,,,,,,,,,,,,,,,,,,,,,,,,,,,,,,,,,,,,,94.86540799995419,,,,,,,,,,,,,,,,,,,,,,,94.6668895999901,94.67102209990844,None,,,,,,,,,,,,,,,,,,,,,,,,,,,,,,,,,,,,,,,,,,,,,,,,,,,,,,,,,,,,,,,,,,,,277114,457303,Hombre,2024-09-18_14h27.41.415,tarea_iceberg,2023.2.3,59.916548251821126,2024-09-18 14h28.08.050583 +0200,
14,-0.6,0.05,,,,,0,7,7,1,,,,,,,,,,,,,,,,,,,,,,,,,,,,,,,,,,,,,,,,,,,,,,,,,,,,,,,,,94.86540799995419,,,,,,,,,,,,,,,,,,,,,,,94.67120759992395,94.67531819990836,None,,,,,,,,,,,,,,,,,,,,,,,,,,,,,,,,,,,,,,,,,,,,,,,,,,,,,,,,,,,,,,,,,,,,277114,457303,Hombre,2024-09-18_14h27.41.415,tarea_iceberg,2023.2.3,59.916548251821126,2024-09-18 14h28.08.050583 +0200,
5,-0.2,0.05,,,,,,,,,0,0,0,6,,,,,,,,,,,,,,,,,,,,,,,,,,,,,,,,,,,,,,,,,,,,,,,,,,,,,94.86540799995419,,,,,,,,,,,,,,,,,,,,,,,,,,94.7052362000104,94.71000299998559,None,,,,,,,,,,,,,,,,,,,,,,,,,,,,,,,,,,,,,,,,,,,,,,,,,,,,,,,,,,,,,,,,,277114,457303,Hombre,2024-09-18_14h27.41.415,tarea_iceberg,2023.2.3,59.916548251821126,2024-09-18 14h28.08.050583 +0200,
4,-0.7,0.05,,,,,,,,,0,1,1,0,,,,,,,,,,,,,,,,,,,,,,,,,,,,,,,,,,,,,,,,,,,,,,,,,,,,,94.86540799995419,,,,,,,,,,,,,,,,,,,,,,,,,,94.71028759994078,94.71430719993077,None,,,,,,,,,,,,,,,,,,,,,,,,,,,,,,,,,,,,,,,,,,,,,,,,,,,,,,,,,,,,,,,,,277114,457303,Hombre,2024-09-18_14h27.41.415,tarea_iceberg,2023.2.3,59.916548251821126,2024-09-18 14h28.08.050583 +0200,
15,-0.6,0.05,,,,,,,,,0,2,2,5,,,,,,,,,,,,,,,,,,,,,,,,,,,,,,,,,,,,,,,,,,,,,,,,,,,,,94.86540799995419,,,,,,,,,,,,,,,,,,,,,,,,,,94.71447519992944,94.71946960000787,None,,,,,,,,,,,,,,,,,,,,,,,,,,,,,,,,,,,,,,,,,,,,,,,,,,,,,,,,,,,,,,,,,277114,457303,Hombre,2024-09-18_14h27.41.415,tarea_iceberg,2023.2.3,59.916548251821126,2024-09-18 14h28.08.050583 +0200,
14,-0.1,0.05,,,,,,,,,0,3,3,2,,,,,,,,,,,,,,,,,,,,,,,,,,,,,,,,,,,,,,,,,,,,,,,,,,,,,94.86540799995419,,,,,,,,,,,,,,,,,,,,,,,,,,94.71971199999098,94.72423249995336,None,,,,,,,,,,,,,,,,,,,,,,,,,,,,,,,,,,,,,,,,,,,,,,,,,,,,,,,,,,,,,,,,,277114,457303,Hombre,2024-09-18_14h27.41.415,tarea_iceberg,2023.2.3,59.916548251821126,2024-09-18 14h28.08.050583 +0200,
13,-0.2,0.05,,,,,,,,,0,4,4,4,,,,,,,,,,,,,,,,,,,,,,,,,,,,,,,,,,,,,,,,,,,,,,,,,,,,,94.86540799995419,,,,,,,,,,,,,,,,,,,,,,,,,,94.72443880001083,94.72907529992517,None,,,,,,,,,,,,,,,,,,,,,,,,,,,,,,,,,,,,,,,,,,,,,,,,,,,,,,,,,,,,,,,,,277114,457303,Hombre,2024-09-18_14h27.41.415,tarea_iceberg,2023.2.3,59.916548251821126,2024-09-18 14h28.08.050583 +0200,
14,-0.7,0.05,,,,,,,,,0,5,5,3,,,,,,,,,,,,,,,,,,,,,,,,,,,,,,,,,,,,,,,,,,,,,,,,,,,,,94.86540799995419,,,,,,,,,,,,,,,,,,,,,,,,,,94.72928480000701,94.73362610000186,None,,,,,,,,,,,,,,,,,,,,,,,,,,,,,,,,,,,,,,,,,,,,,,,,,,,,,,,,,,,,,,,,,277114,457303,Hombre,2024-09-18_14h27.41.415,tarea_iceberg,2023.2.3,59.916548251821126,2024-09-18 14h28.08.050583 +0200,
14,-0.6,0.05,,,,,,,,,0,6,6,1,,,,,,,,,,,,,,,,,,,,,,,,,,,,,,,,,,,,,,,,,,,,,,,,,,,,,94.86540799995419,,,,,,,,,,,,,,,,,,,,,,,,,,94.73382500000298,94.7382387999678,None,,,,,,,,,,,,,,,,,,,,,,,,,,,,,,,,,,,,,,,,,,,,,,,,,,,,,,,,,,,,,,,,,277114,457303,Hombre,2024-09-18_14h27.41.415,tarea_iceberg,2023.2.3,59.916548251821126,2024-09-18 14h28.08.050583 +0200,
4,0.1,0.05,,,,,,,,,0,7,7,7,,,,,,,,,,,,,,,,,,,,,,,,,,,,,,,,,,,,,,,,,,,,,,,,,,,,,94.86540799995419,,,,,,,,,,,,,,,,,,,,,,,,,,94.73843099991791,94.74269029998686,None,,,,,,,,,,,,,,,,,,,,,,,,,,,,,,,,,,,,,,,,,,,,,,,,,,,,,,,,,,,,,,,,,277114,457303,Hombre,2024-09-18_14h27.41.415,tarea_iceberg,2023.2.3,59.916548251821126,2024-09-18 14h28.08.050583 +0200,
5,-0.2,0.05,,,,,,,,,,,,,0,0,0,6,,,,,,,,,,,,,,,,,,,,,,,,,,,,,,,,,,,,,,,,,,,,,,,,,94.86540799995419,,,,,,,,,,,,,,,,,,,,,,,,,,,,,94.7777850999264,94.78331520000938,None,,,,,,,,,,,,,,,,,,,,,,,,,,,,,,,,,,,,,,,,,,,,,,,,,,,,,,,,,,,,,,277114,457303,Hombre,2024-09-18_14h27.41.415,tarea_iceberg,2023.2.3,59.916548251821126,2024-09-18 14h28.08.050583 +0200,
4,-0.7,0.05,,,,,,,,,,,,,0,1,1,0,,,,,,,,,,,,,,,,,,,,,,,,,,,,,,,,,,,,,,,,,,,,,,,,,94.86540799995419,,,,,,,,,,,,,,,,,,,,,,,,,,,,,94.78356109990273,94.78775139991194,None,,,,,,,,,,,,,,,,,,,,,,,,,,,,,,,,,,,,,,,,,,,,,,,,,,,,,,,,,,,,,,277114,457303,Hombre,2024-09-18_14h27.41.415,tarea_iceberg,2023.2.3,59.916548251821126,2024-09-18 14h28.08.050583 +0200,
4,0.1,0.05,,,,,,,,,,,,,0,2,2,7,,,,,,,,,,,,,,,,,,,,,,,,,,,,,,,,,,,,,,,,,,,,,,,,,94.86540799995419,,,,,,,,,,,,,,,,,,,,,,,,,,,,,94.78794519999065,94.79200929997023,None,,,,,,,,,,,,,,,,,,,,,,,,,,,,,,,,,,,,,,,,,,,,,,,,,,,,,,,,,,,,,,277114,457303,Hombre,2024-09-18_14h27.41.415,tarea_iceberg,2023.2.3,59.916548251821126,2024-09-18 14h28.08.050583 +0200,
15,-0.6,0.05,,,,,,,,,,,,,0,3,3,5,,,,,,,,,,,,,,,,,,,,,,,,,,,,,,,,,,,,,,,,,,,,,,,,,94.86540799995419,,,,,,,,,,,,,,,,,,,,,,,,,,,,,94.79219209996518,94.79620629991405,None,,,,,,,,,,,,,,,,,,,,,,,,,,,,,,,,,,,,,,,,,,,,,,,,,,,,,,,,,,,,,,277114,457303,Hombre,2024-09-18_14h27.41.415,tarea_iceberg,2023.2.3,59.916548251821126,2024-09-18 14h28.08.050583 +0200,
14,-0.7,0.05,,,,,,,,,,,,,0,4,4,3,,,,,,,,,,,,,,,,,,,,,,,,,,,,,,,,,,,,,,,,,,,,,,,,,94.86540799995419,,,,,,,,,,,,,,,,,,,,,,,,,,,,,94.79637269990053,94.80032999999821,None,,,,,,,,,,,,,,,,,,,,,,,,,,,,,,,,,,,,,,,,,,,,,,,,,,,,,,,,,,,,,,277114,457303,Hombre,2024-09-18_14h27.41.415,tarea_iceberg,2023.2.3,59.916548251821126,2024-09-18 14h28.08.050583 +0200,
13,-0.2,0.05,,,,,,,,,,,,,0,5,5,4,,,,,,,,,,,,,,,,,,,,,,,,,,,,,,,,,,,,,,,,,,,,,,,,,94.86540799995419,,,,,,,,,,,,,,,,,,,,,,,,,,,,,94.80051799991634,94.80470879992936,None,,,,,,,,,,,,,,,,,,,,,,,,,,,,,,,,,,,,,,,,,,,,,,,,,,,,,,,,,,,,,,277114,457303,Hombre,2024-09-18_14h27.41.415,tarea_iceberg,2023.2.3,59.916548251821126,2024-09-18 14h28.08.050583 +0200,
14,-0.6,0.05,,,,,,,,,,,,,0,6,6,1,,,,,,,,,,,,,,,,,,,,,,,,,,,,,,,,,,,,,,,,,,,,,,,,,94.86540799995419,,,,,,,,,,,,,,,,,,,,,,,,,,,,,94.8048902999144,94.80893459997606,None,,,,,,,,,,,,,,,,,,,,,,,,,,,,,,,,,,,,,,,,,,,,,,,,,,,,,,,,,,,,,,277114,457303,Hombre,2024-09-18_14h27.41.415,tarea_iceberg,2023.2.3,59.916548251821126,2024-09-18 14h28.08.050583 +0200,
14,-0.1,0.05,,,,,,,,,,,,,0,7,7,2,,,,,,,,,,,,,,,,,,,,,,,,,,,,,,,,,,,,,,,,,,,,,,,,,94.86540799995419,,,,,,,,,,,,,,,,,,,,,,,,,,,,,94.80911419994663,94.81311669992283,None,,,,,,,,,,,,,,,,,,,,,,,,,,,,,,,,,,,,,,,,,,,,,,,,,,,,,,,,,,,,,,277114,457303,Hombre,2024-09-18_14h27.41.415,tarea_iceberg,2023.2.3,59.916548251821126,2024-09-18 14h28.08.050583 +0200,
8,-0.1,0.05,,,,,,,,,,,,,,,,,0,0,0,2,,,,,,,,,,,,,,,,,,,,,,,,,,,,,,,,,,,,,,,,,,,,,97.49583179992624,,,,,,,,,,,,,,,,,,,,,,,,,,,,,,,,94.8544464999577,94.86540799995419,96.85986480000429,96.87290670000948,96.87800859997515,None,,,,,,,,,,,,,,,,,,,,,,,,,,,,,,,,,,,,,,,,,,,,,,,,,,,,,,,,277114,457303,Hombre,2024-09-18_14h27.41.415,tarea_iceberg,2023.2.3,59.916548251821126,2024-09-18 14h28.08.050583 +0200,
3,-0.2,0.05,,,,,,,,,,,,,,,,,0,1,1,3,,,,,,,,,,,,,,,,,,,,,,,,,,,,,,,,,,,,,,,,,,,,,97.49583179992624,,,,,,,,,,,,,,,,,,,,,,,,,,,,,,,,,,,96.87825760000851,96.88200420001522,None,,,,,,,,,,,,,,,,,,,,,,,,,,,,,,,,,,,,,,,,,,,,,,,,,,,,,,,,277114,457303,Hombre,2024-09-18_14h27.41.415,tarea_iceberg,2023.2.3,59.916548251821126,2024-09-18 14h28.08.050583 +0200,
10,-0.6,0.05,,,,,,,,,,,,,,,,,0,2,2,4,,,,,,,,,,,,,,,,,,,,,,,,,,,,,,,,,,,,,,,,,,,,,97.49583179992624,,,,,,,,,,,,,,,,,,,,,,,,,,,,,,,,,,,96.88217839994468,96.88580659998115,None,,,,,,,,,,,,,,,,,,,,,,,,,,,,,,,,,,,,,,,,,,,,,,,,,,,,,,,,277114,457303,Hombre,2024-09-18_14h27.41.415,tarea_iceberg,2023.2.3,59.916548251821126,2024-09-18 14h28.08.050583 +0200,
8,0,0.05,,,,,,,,,,,,,,,,,0,3,3,0,,,,,,,,,,,,,,,,,,,,,,,,,,,,,,,,,,,,,,,,,,,,,97.49583179992624,,,,,,,,,,,,,,,,,,,,,,,,,,,,,,,,,,,96.88597539998591,96.88964850001503,None,,,,,,,,,,,,,,,,,,,,,,,,,,,,,,,,,,,,,,,,,,,,,,,,,,,,,,,,277114,457303,Hombre,2024-09-18_14h27.41.415,tarea_iceberg,2023.2.3,59.916548251821126,2024-09-18 14h28.08.050583 +0200,
13,-0.5,0.05,,,,,,,,,,,,,,,,,0,4,4,7,,,,,,,,,,,,,,,,,,,,,,,,,,,,,,,,,,,,,,,,,,,,,97.49583179992624,,,,,,,,,,,,,,,,,,,,,,,,,,,,,,,,,,,96.88984429999255,96.8935692999512,None,,,,,,,,,,,,,,,,,,,,,,,,,,,,,,,,,,,,,,,,,,,,,,,,,,,,,,,,277114,457303,Hombre,2024-09-18_14h27.41.415,tarea_iceberg,2023.2.3,59.916548251821126,2024-09-18 14h28.08.050583 +0200,
5,-0.7,0.05,,,,,,,,,,,,,,,,,0,5,5,1,,,,,,,,,,,,,,,,,,,,,,,,,,,,,,,,,,,,,,,,,,,,,97.49583179992624,,,,,,,,,,,,,,,,,,,,,,,,,,,,,,,,,,,96.89373339992017,96.89725259994157,None,,,,,,,,,,,,,,,,,,,,,,,,,,,,,,,,,,,,,,,,,,,,,,,,,,,,,,,,277114,457303,Hombre,2024-09-18_14h27.41.415,tarea_iceberg,2023.2.3,59.916548251821126,2024-09-18 14h28.08.050583 +0200,
7,-0.4,0.05,,,,,,,,,,,,,,,,,0,6,6,6,,,,,,,,,,,,,,,,,,,,,,,,,,,,,,,,,,,,,,,,,,,,,97.49583179992624,,,,,,,,,,,,,,,,,,,,,,,,,,,,,,,,,,,96.89743999997154,96.90095749998,None,,,,,,,,,,,,,,,,,,,,,,,,,,,,,,,,,,,,,,,,,,,,,,,,,,,,,,,,277114,457303,Hombre,2024-09-18_14h27.41.415,tarea_iceberg,2023.2.3,59.916548251821126,2024-09-18 14h28.08.050583 +0200,
9,-0.4,0.05,,,,,,,,,,,,,,,,,0,7,7,5,,,,,,,,,,,,,,,,,,,,,,,,,,,,,,,,,,,,,,,,,,,,,97.49583179992624,,,,,,,,,,,,,,,,,,,,,,,,,,,,,,,,,,,96.90112059994135,96.90475049999077,None,,,,,,,,,,,,,,,,,,,,,,,,,,,,,,,,,,,,,,,,,,,,,,,,,,,,,,,,277114,457303,Hombre,2024-09-18_14h27.41.415,tarea_iceberg,2023.2.3,59.916548251821126,2024-09-18 14h28.08.050583 +0200,
5,-0.7,0.05,,,,,,,,,,,,,,,,,,,,,0,0,0,1,,,,,,,,,,,,,,,,,,,,,,,,,,,,,,,,,,,,,,,,,97.49583179992624,,,,,,,,,,,,,,,,,,,,,,,,,,,,,,,,,,,,,,96.91785249998793,101.91460599994753,101.91460599994753,102.43457649997436,space,0.5087502999231219,None,,,,,,,,,,,,,,,,,,,,,,,,,,,,,,,,,,,,,,,,,,,,,,,,,277114,457303,Hombre,2024-09-18_14h27.41.415,tarea_iceberg,2023.2.3,59.916548251821126,2024-09-18 14h28.08.050583 +0200,
3,-0.2,0.05,,,,,,,,,,,,,,,,,,,,,0,1,1,3,,,,,,,,,,,,,,,,,,,,,,,,,,,,,,,,,,,,,,,,,102.45619309996255,,,,,,,,,,,,,,,,,,,,,,,,,,,,,,,,,,,,,,102.43492649996188,105.43698409991339,105.43698409991339,105.89268009993248,space,0.4435817999765277,None,,,,,,,,,,,,,,,,,,,,,,,,,,,,,,,,,,,,,,,,,,,,,,,,,277114,457303,Hombre,2024-09-18_14h27.41.415,tarea_iceberg,2023.2.3,59.916548251821126,2024-09-18 14h28.08.050583 +0200,
8,-0.1,0.05,,,,,,,,,,,,,,,,,,,,,0,2,2,2,,,,,,,,,,,,,,,,,,,,,,,,,,,,,,,,,,,,,,,,,105.90979629999492,,,,,,,,,,,,,,,,,,,,,,,,,,,,,,,,,,,,,,105.89313089998905,113.89309639995918,113.89309639995918,114.3519836999476,space,0.4500768999569118,None,,,,,,,,,,,,,,,,,,,,,,,,,,,,,,,,,,,,,,,,,,,,,,,,,277114,457303,Hombre,2024-09-18_14h27.41.415,tarea_iceberg,2023.2.3,59.916548251821126,2024-09-18 14h28.08.050583 +0200,
7,-0.4,0.05,,,,,,,,,,,,,,,,,,,,,0,3,3,6,,,,,,,,,,,,,,,,,,,,,,,,,,,,,,,,,,,,,,,,,114.36907299992163,,,,,,,,,,,,,,,,,,,,,,,,,,,,,,,,,,,,,,114.35241829999723,121.36873280000873,121.36873280000873,121.82864899991546,space,0.447311699972488,None,,,,,,,,,,,,,,,,,,,,,,,,,,,,,,,,,,,,,,,,,,,,,,,,,277114,457303,Hombre,2024-09-18_14h27.41.415,tarea_iceberg,2023.2.3,59.916548251821126,2024-09-18 14h28.08.050583 +0200,
13,-0.5,0.05,,,,,,,,,,,,,,,,,,,,,0,4,4,7,,,,,,,,,,,,,,,,,,,,,,,,,,,,,,,,,,,,,,,,,121.84422739990987,,,,,,,,,,,,,,,,,,,,,,,,,,,,,,,,,,,,,,121.8290969999507,134.83177629997954,134.83177629997954,135.30119349993765,space,0.45568740007001907,None,,,,,,,,,,,,,,,,,,,,,,,,,,,,,,,,,,,,,,,,,,,,,,,,,277114,457303,Hombre,2024-09-18_14h27.41.415,tarea_iceberg,2023.2.3,59.916548251821126,2024-09-18 14h28.08.050583 +0200,
9,-0.4,0.05,,,,,,,,,,,,,,,,,,,,,0,5,5,5,,,,,,,,,,,,,,,,,,,,,,,,,,,,,,,,,,,,,,,,,135.3245824999176,,,,,,,,,,,,,,,,,,,,,,,,,,,,,,,,,,,,,,135.301471499959,144.30682970001362,144.30682970001362,144.82660829997621,space,0.501669800025411,None,,,,,,,,,,,,,,,,,,,,,,,,,,,,,,,,,,,,,,,,,,,,,,,,,277114,457303,Hombre,2024-09-18_14h27.41.415,tarea_iceberg,2023.2.3,59.916548251821126,2024-09-18 14h28.08.050583 +0200,
8,0,0.05,,,,,,,,,,,,,,,,,,,,,0,6,6,0,,,,,,,,,,,,,,,,,,,,,,,,,,,,,,,,,,,,,,,,,144.84199789993,,,,,,,,,,,,,,,,,,,,,,,,,,,,,,,,,,,,,,144.82687909994274,152.83301740000024,152.83301740000024,153.22416829993017,space,0.3745182000566274,None,,,,,,,,,,,,,,,,,,,,,,,,,,,,,,,,,,,,,,,,,,,,,,,,,277114,457303,Hombre,2024-09-18_14h27.41.415,tarea_iceberg,2023.2.3,59.916548251821126,2024-09-18 14h28.08.050583 +0200,
10,-0.6,0.05,,,,,,,,,,,,,,,,,,,,,0,7,7,4,,,,,,,,,,,,,,,,,,,,,,,,,,,,,,,,,,,,,,,,,153.24000999995042,,,,,,,,,,,,,,,,,,,,,,,,,,,,,,,,,,,,,,153.22451460000593,163.22552229999565,163.22552229999565,163.64549149991944,space,0.4058274000417441,None,,,,,,,,,,,,,,,,,,,,,,,,,,,,,,,,,,,,,,,,,,,,,,,,,277114,457303,Hombre,2024-09-18_14h27.41.415,tarea_iceberg,2023.2.3,59.916548251821126,2024-09-18 14h28.08.050583 +0200,
3,-0.2,0.05,,,,,,,,,,,,,,,,,,,,,,,,,0,0,0,3,,,,,,,,,,,,,,,,,,,,,,,,,,,,,,,,,,,,,163.85524669999722,,,,,,,,,,,,,,,,,,,,,,,,,,,,,,,,,,,,,,,,,,,,,163.68694699998014,163.6924017999554,None,,,,,,,,,,,,,,,,,,,,,,,,,,,,,,,,,,,,,,,,,,,,,,277114,457303,Hombre,2024-09-18_14h27.41.415,tarea_iceberg,2023.2.3,59.916548251821126,2024-09-18 14h28.08.050583 +0200,
7,-0.4,0.05,,,,,,,,,,,,,,,,,,,,,,,,,0,1,1,6,,,,,,,,,,,,,,,,,,,,,,,,,,,,,,,,,,,,,163.85524669999722,,,,,,,,,,,,,,,,,,,,,,,,,,,,,,,,,,,,,,,,,,,,,163.69268619990908,163.69707200000994,None,,,,,,,,,,,,,,,,,,,,,,,,,,,,,,,,,,,,,,,,,,,,,,277114,457303,Hombre,2024-09-18_14h27.41.415,tarea_iceberg,2023.2.3,59.916548251821126,2024-09-18 14h28.08.050583 +0200,
10,-0.6,0.05,,,,,,,,,,,,,,,,,,,,,,,,,0,2,2,4,,,,,,,,,,,,,,,,,,,,,,,,,,,,,,,,,,,,,163.85524669999722,,,,,,,,,,,,,,,,,,,,,,,,,,,,,,,,,,,,,,,,,,,,,163.697261699941,163.70116639998741,None,,,,,,,,,,,,,,,,,,,,,,,,,,,,,,,,,,,,,,,,,,,,,,277114,457303,Hombre,2024-09-18_14h27.41.415,tarea_iceberg,2023.2.3,59.916548251821126,2024-09-18 14h28.08.050583 +0200,
5,-0.7,0.05,,,,,,,,,,,,,,,,,,,,,,,,,0,3,3,1,,,,,,,,,,,,,,,,,,,,,,,,,,,,,,,,,,,,,163.85524669999722,,,,,,,,,,,,,,,,,,,,,,,,,,,,,,,,,,,,,,,,,,,,,163.7013345999876,163.70519759994932,None,,,,,,,,,,,,,,,,,,,,,,,,,,,,,,,,,,,,,,,,,,,,,,277114,457303,Hombre,2024-09-18_14h27.41.415,tarea_iceberg,2023.2.3,59.916548251821126,2024-09-18 14h28.08.050583 +0200,
8,0,0.05,,,,,,,,,,,,,,,,,,,,,,,,,0,4,4,0,,,,,,,,,,,,,,,,,,,,,,,,,,,,,,,,,,,,,163.85524669999722,,,,,,,,,,,,,,,,,,,,,,,,,,,,,,,,,,,,,,,,,,,,,163.7053649999434,163.70962129998952,None,,,,,,,,,,,,,,,,,,,,,,,,,,,,,,,,,,,,,,,,,,,,,,277114,457303,Hombre,2024-09-18_14h27.41.415,tarea_iceberg,2023.2.3,59.916548251821126,2024-09-18 14h28.08.050583 +0200,
8,-0.1,0.05,,,,,,,,,,,,,,,,,,,,,,,,,0,5,5,2,,,,,,,,,,,,,,,,,,,,,,,,,,,,,,,,,,,,,163.85524669999722,,,,,,,,,,,,,,,,,,,,,,,,,,,,,,,,,,,,,,,,,,,,,163.70980059995782,163.71368479996454,None,,,,,,,,,,,,,,,,,,,,,,,,,,,,,,,,,,,,,,,,,,,,,,277114,457303,Hombre,2024-09-18_14h27.41.415,tarea_iceberg,2023.2.3,59.916548251821126,2024-09-18 14h28.08.050583 +0200,
13,-0.5,0.05,,,,,,,,,,,,,,,,,,,,,,,,,0,6,6,7,,,,,,,,,,,,,,,,,,,,,,,,,,,,,,,,,,,,,163.85524669999722,,,,,,,,,,,,,,,,,,,,,,,,,,,,,,,,,,,,,,,,,,,,,163.71388079994358,163.7178963999031,None,,,,,,,,,,,,,,,,,,,,,,,,,,,,,,,,,,,,,,,,,,,,,,277114,457303,Hombre,2024-09-18_14h27.41.415,tarea_iceberg,2023.2.3,59.916548251821126,2024-09-18 14h28.08.050583 +0200,
9,-0.4,0.05,,,,,,,,,,,,,,,,,,,,,,,,,0,7,7,5,,,,,,,,,,,,,,,,,,,,,,,,,,,,,,,,,,,,,163.85524669999722,,,,,,,,,,,,,,,,,,,,,,,,,,,,,,,,,,,,,,,,,,,,,163.71807219996117,163.72189709998202,None,,,,,,,,,,,,,,,,,,,,,,,,,,,,,,,,,,,,,,,,,,,,,,277114,457303,Hombre,2024-09-18_14h27.41.415,tarea_iceberg,2023.2.3,59.916548251821126,2024-09-18 14h28.08.050583 +0200,
8,0,0.05,,,,,,,,,,,,,,,,,,,,,,,,,,,,,0,0,0,0,,,,,,,,,,,,,,,,,,,,,,,,,,,,,,,,,163.85524669999722,,,,,,,,,,,,,,,,,,,,,,,,,,,,,,,,,,,,,,,,,,,,,,,,163.76626699999906,163.77163360000122,None,,,,,,,,,,,,,,,,,,,,,,,,,,,,,,,,,,,,,,,,,,,277114,457303,Hombre,2024-09-18_14h27.41.415,tarea_iceberg,2023.2.3,59.916548251821126,2024-09-18 14h28.08.050583 +0200,
8,-0.1,0.05,,,,,,,,,,,,,,,,,,,,,,,,,,,,,0,1,1,2,,,,,,,,,,,,,,,,,,,,,,,,,,,,,,,,,163.85524669999722,,,,,,,,,,,,,,,,,,,,,,,,,,,,,,,,,,,,,,,,,,,,,,,,163.7718529999256,163.7766231999267,None,,,,,,,,,,,,,,,,,,,,,,,,,,,,,,,,,,,,,,,,,,,277114,457303,Hombre,2024-09-18_14h27.41.415,tarea_iceberg,2023.2.3,59.916548251821126,2024-09-18 14h28.08.050583 +0200,
10,-0.6,0.05,,,,,,,,,,,,,,,,,,,,,,,,,,,,,0,2,2,4,,,,,,,,,,,,,,,,,,,,,,,,,,,,,,,,,163.85524669999722,,,,,,,,,,,,,,,,,,,,,,,,,,,,,,,,,,,,,,,,,,,,,,,,163.7768368999241,163.7819720999105,None,,,,,,,,,,,,,,,,,,,,,,,,,,,,,,,,,,,,,,,,,,,277114,457303,Hombre,2024-09-18_14h27.41.415,tarea_iceberg,2023.2.3,59.916548251821126,2024-09-18 14h28.08.050583 +0200,
13,-0.5,0.05,,,,,,,,,,,,,,,,,,,,,,,,,,,,,0,3,3,7,,,,,,,,,,,,,,,,,,,,,,,,,,,,,,,,,163.85524669999722,,,,,,,,,,,,,,,,,,,,,,,,,,,,,,,,,,,,,,,,,,,,,,,,163.78217349993065,163.78632299997844,None,,,,,,,,,,,,,,,,,,,,,,,,,,,,,,,,,,,,,,,,,,,277114,457303,Hombre,2024-09-18_14h27.41.415,tarea_iceberg,2023.2.3,59.916548251821126,2024-09-18 14h28.08.050583 +0200,
7,-0.4,0.05,,,,,,,,,,,,,,,,,,,,,,,,,,,,,0,4,4,6,,,,,,,,,,,,,,,,,,,,,,,,,,,,,,,,,163.85524669999722,,,,,,,,,,,,,,,,,,,,,,,,,,,,,,,,,,,,,,,,,,,,,,,,163.7865155999316,163.79092780000065,None,,,,,,,,,,,,,,,,,,,,,,,,,,,,,,,,,,,,,,,,,,,277114,457303,Hombre,2024-09-18_14h27.41.415,tarea_iceberg,2023.2.3,59.916548251821126,2024-09-18 14h28.08.050583 +0200,
9,-0.4,0.05,,,,,,,,,,,,,,,,,,,,,,,,,,,,,0,5,5,5,,,,,,,,,,,,,,,,,,,,,,,,,,,,,,,,,163.85524669999722,,,,,,,,,,,,,,,,,,,,,,,,,,,,,,,,,,,,,,,,,,,,,,,,163.7911529999692,163.79539179999847,None,,,,,,,,,,,,,,,,,,,,,,,,,,,,,,,,,,,,,,,,,,,277114,457303,Hombre,2024-09-18_14h27.41.415,tarea_iceberg,2023.2.3,59.916548251821126,2024-09-18 14h28.08.050583 +0200,
5,-0.7,0.05,,,,,,,,,,,,,,,,,,,,,,,,,,,,,0,6,6,1,,,,,,,,,,,,,,,,,,,,,,,,,,,,,,,,,163.85524669999722,,,,,,,,,,,,,,,,,,,,,,,,,,,,,,,,,,,,,,,,,,,,,,,,163.79557710001245,163.79955869994592,None,,,,,,,,,,,,,,,,,,,,,,,,,,,,,,,,,,,,,,,,,,,277114,457303,Hombre,2024-09-18_14h27.41.415,tarea_iceberg,2023.2.3,59.916548251821126,2024-09-18 14h28.08.050583 +0200,
3,-0.2,0.05,,,,,,,,,,,,,,,,,,,,,,,,,,,,,0,7,7,3,,,,,,,,,,,,,,,,,,,,,,,,,,,,,,,,,163.85524669999722,,,,,,,,,,,,,,,,,,,,,,,,,,,,,,,,,,,,,,,,,,,,,,,,163.79974439996295,163.80366659990977,None,,,,,,,,,,,,,,,,,,,,,,,,,,,,,,,,,,,,,,,,,,,277114,457303,Hombre,2024-09-18_14h27.41.415,tarea_iceberg,2023.2.3,59.916548251821126,2024-09-18 14h28.08.050583 +0200,
6,0,0.05,,,,,,,,,,,,,,,,,,,,,,,,,,,,,,,,,0,0,0,0,,,,,,,,,,,,,,,,,,,,,,,,,,,,,166.56684559991118,,,,,,,,,,,,,,,,,,,,,,,,,,,,,,,,,,,,,,,,,,,,,,,,,,,163.8435545999091,163.85524669999722,165.84513009991497,165.85929369996302,165.86472809989937,None,,,,,,,,,,,,,,,,,,,,,,,,,,,,,,,,,,,,,277114,457303,Hombre,2024-09-18_14h27.41.415,tarea_iceberg,2023.2.3,59.916548251821126,2024-09-18 14h28.08.050583 +0200,
7,-0.2,0.05,,,,,,,,,,,,,,,,,,,,,,,,,,,,,,,,,0,1,1,1,,,,,,,,,,,,,,,,,,,,,,,,,,,,,166.56684559991118,,,,,,,,,,,,,,,,,,,,,,,,,,,,,,,,,,,,,,,,,,,,,,,,,,,,,,165.86494969995692,165.86863769998308,None,,,,,,,,,,,,,,,,,,,,,,,,,,,,,,,,,,,,,277114,457303,Hombre,2024-09-18_14h27.41.415,tarea_iceberg,2023.2.3,59.916548251821126,2024-09-18 14h28.08.050583 +0200,
13,-0.1,0.05,,,,,,,,,,,,,,,,,,,,,,,,,,,,,,,,,0,2,2,6,,,,,,,,,,,,,,,,,,,,,,,,,,,,,166.56684559991118,,,,,,,,,,,,,,,,,,,,,,,,,,,,,,,,,,,,,,,,,,,,,,,,,,,,,,165.86881829996128,165.87245169992093,None,,,,,,,,,,,,,,,,,,,,,,,,,,,,,,,,,,,,,277114,457303,Hombre,2024-09-18_14h27.41.415,tarea_iceberg,2023.2.3,59.916548251821126,2024-09-18 14h28.08.050583 +0200,
5,-0.4,0.05,,,,,,,,,,,,,,,,,,,,,,,,,,,,,,,,,0,3,3,5,,,,,,,,,,,,,,,,,,,,,,,,,,,,,166.56684559991118,,,,,,,,,,,,,,,,,,,,,,,,,,,,,,,,,,,,,,,,,,,,,,,,,,,,,,165.87262139993254,165.87638399994466,None,,,,,,,,,,,,,,,,,,,,,,,,,,,,,,,,,,,,,277114,457303,Hombre,2024-09-18_14h27.41.415,tarea_iceberg,2023.2.3,59.916548251821126,2024-09-18 14h28.08.050583 +0200,
8,-0.3,0.05,,,,,,,,,,,,,,,,,,,,,,,,,,,,,,,,,0,4,4,7,,,,,,,,,,,,,,,,,,,,,,,,,,,,,166.56684559991118,,,,,,,,,,,,,,,,,,,,,,,,,,,,,,,,,,,,,,,,,,,,,,,,,,,,,,165.87659489992075,165.88019199995324,None,,,,,,,,,,,,,,,,,,,,,,,,,,,,,,,,,,,,,277114,457303,Hombre,2024-09-18_14h27.41.415,tarea_iceberg,2023.2.3,59.916548251821126,2024-09-18 14h28.08.050583 +0200,
14,-0.7,0.05,,,,,,,,,,,,,,,,,,,,,,,,,,,,,,,,,0,5,5,3,,,,,,,,,,,,,,,,,,,,,,,,,,,,,166.56684559991118,,,,,,,,,,,,,,,,,,,,,,,,,,,,,,,,,,,,,,,,,,,,,,,,,,,,,,165.8804091999773,165.8839130999986,None,,,,,,,,,,,,,,,,,,,,,,,,,,,,,,,,,,,,,277114,457303,Hombre,2024-09-18_14h27.41.415,tarea_iceberg,2023.2.3,59.916548251821126,2024-09-18 14h28.08.050583 +0200,
3,-0.7,0.05,,,,,,,,,,,,,,,,,,,,,,,,,,,,,,,,,0,6,6,2,,,,,,,,,,,,,,,,,,,,,,,,,,,,,166.56684559991118,,,,,,,,,,,,,,,,,,,,,,,,,,,,,,,,,,,,,,,,,,,,,,,,,,,,,,165.88407649996225,165.88759359996766,None,,,,,,,,,,,,,,,,,,,,,,,,,,,,,,,,,,,,,277114,457303,Hombre,2024-09-18_14h27.41.415,tarea_iceberg,2023.2.3,59.916548251821126,2024-09-18 14h28.08.050583 +0200,
7,-0.5,0.05,,,,,,,,,,,,,,,,,,,,,,,,,,,,,,,,,0,7,7,4,,,,,,,,,,,,,,,,,,,,,,,,,,,,,166.56684559991118,,,,,,,,,,,,,,,,,,,,,,,,,,,,,,,,,,,,,,,,,,,,,,,,,,,,,,165.8877524000127,165.8916065999074,None,,,,,,,,,,,,,,,,,,,,,,,,,,,,,,,,,,,,,277114,457303,Hombre,2024-09-18_14h27.41.415,tarea_iceberg,2023.2.3,59.916548251821126,2024-09-18 14h28.08.050583 +0200,
13,-0.1,0.05,,,,,,,,,,,,,,,,,,,,,,,,,,,,,,,,,,,,,0,0,0,6,,,,,,,,,,,,,,,,,,,,,,,,,166.56684559991118,,,,,,,,,,,,,,,,,,,,,,,,,,,,,,,,,,,,,,,,,,,,,,,,,,,,,,,,,165.90424810000695,165.90865080000367,None,,,,,,,,,,,,,,,,,,,,,,,,,,,,,,,,,,277114,457303,Hombre,2024-09-18_14h27.41.415,tarea_iceberg,2023.2.3,59.916548251821126,2024-09-18 14h28.08.050583 +0200,
8,-0.3,0.05,,,,,,,,,,,,,,,,,,,,,,,,,,,,,,,,,,,,,0,1,1,7,,,,,,,,,,,,,,,,,,,,,,,,,166.56684559991118,,,,,,,,,,,,,,,,,,,,,,,,,,,,,,,,,,,,,,,,,,,,,,,,,,,,,,,,,165.9088620999828,165.91250939993188,None,,,,,,,,,,,,,,,,,,,,,,,,,,,,,,,,,,277114,457303,Hombre,2024-09-18_14h27.41.415,tarea_iceberg,2023.2.3,59.916548251821126,2024-09-18 14h28.08.050583 +0200,
14,-0.7,0.05,,,,,,,,,,,,,,,,,,,,,,,,,,,,,,,,,,,,,0,2,2,3,,,,,,,,,,,,,,,,,,,,,,,,,166.56684559991118,,,,,,,,,,,,,,,,,,,,,,,,,,,,,,,,,,,,,,,,,,,,,,,,,,,,,,,,,165.91267709992826,165.9162335000001,None,,,,,,,,,,,,,,,,,,,,,,,,,,,,,,,,,,277114,457303,Hombre,2024-09-18_14h27.41.415,tarea_iceberg,2023.2.3,59.916548251821126,2024-09-18 14h28.08.050583 +0200,
6,0,0.05,,,,,,,,,,,,,,,,,,,,,,,,,,,,,,,,,,,,,0,3,3,0,,,,,,,,,,,,,,,,,,,,,,,,,166.56684559991118,,,,,,,,,,,,,,,,,,,,,,,,,,,,,,,,,,,,,,,,,,,,,,,,,,,,,,,,,165.91638159996364,165.91995539993513,None,,,,,,,,,,,,,,,,,,,,,,,,,,,,,,,,,,277114,457303,Hombre,2024-09-18_14h27.41.415,tarea_iceberg,2023.2.3,59.916548251821126,2024-09-18 14h28.08.050583 +0200,
5,-0.4,0.05,,,,,,,,,,,,,,,,,,,,,,,,,,,,,,,,,,,,,0,4,4,5,,,,,,,,,,,,,,,,,,,,,,,,,166.56684559991118,,,,,,,,,,,,,,,,,,,,,,,,,,,,,,,,,,,,,,,,,,,,,,,,,,,,,,,,,165.92013059998862,165.92359619995113,None,,,,,,,,,,,,,,,,,,,,,,,,,,,,,,,,,,277114,457303,Hombre,2024-09-18_14h27.41.415,tarea_iceberg,2023.2.3,59.916548251821126,2024-09-18 14h28.08.050583 +0200,
7,-0.5,0.05,,,,,,,,,,,,,,,,,,,,,,,,,,,,,,,,,,,,,0,5,5,4,,,,,,,,,,,,,,,,,,,,,,,,,166.56684559991118,,,,,,,,,,,,,,,,,,,,,,,,,,,,,,,,,,,,,,,,,,,,,,,,,,,,,,,,,165.92376229993533,165.92750789993443,None,,,,,,,,,,,,,,,,,,,,,,,,,,,,,,,,,,277114,457303,Hombre,2024-09-18_14h27.41.415,tarea_iceberg,2023.2.3,59.916548251821126,2024-09-18 14h28.08.050583 +0200,
3,-0.7,0.05,,,,,,,,,,,,,,,,,,,,,,,,,,,,,,,,,,,,,0,6,6,2,,,,,,,,,,,,,,,,,,,,,,,,,166.56684559991118,,,,,,,,,,,,,,,,,,,,,,,,,,,,,,,,,,,,,,,,,,,,,,,,,,,,,,,,,165.92768019996583,165.93140529992525,None,,,,,,,,,,,,,,,,,,,,,,,,,,,,,,,,,,277114,457303,Hombre,2024-09-18_14h27.41.415,tarea_iceberg,2023.2.3,59.916548251821126,2024-09-18 14h28.08.050583 +0200,
7,-0.2,0.05,,,,,,,,,,,,,,,,,,,,,,,,,,,,,,,,,,,,,0,7,7,1,,,,,,,,,,,,,,,,,,,,,,,,,166.56684559991118,,,,,,,,,,,,,,,,,,,,,,,,,,,,,,,,,,,,,,,,,,,,,,,,,,,,,,,,,165.93157419993076,165.93529109994415,None,,,,,,,,,,,,,,,,,,,,,,,,,,,,,,,,,,277114,457303,Hombre,2024-09-18_14h27.41.415,tarea_iceberg,2023.2.3,59.916548251821126,2024-09-18 14h28.08.050583 +0200,
6,0,0.05,,,,,,,,,,,,,,,,,,,,,,,,,,,,,,,,,,,,,,,,,0,0,0,0,,,,,,,,,,,,,,,,,,,,,166.56684559991118,,,,,,,,,,,,,,,,,,,,,,,,,,,,,,,,,,,,,,,,,,,,,,,,,,,,,,,,,,,,165.97597689996473,171.97307879989967,171.97307879989967,172.43615640001372,space,0.4593748999759555,None,,,,,,,,,,,,,,,,,,,,,,,,,,,277114,457303,Hombre,2024-09-18_14h27.41.415,tarea_iceberg,2023.2.3,59.916548251821126,2024-09-18 14h28.08.050583 +0200,
5,-0.4,0.05,,,,,,,,,,,,,,,,,,,,,,,,,,,,,,,,,,,,,,,,,0,1,1,5,,,,,,,,,,,,,,,,,,,,,172.452122699935,,,,,,,,,,,,,,,,,,,,,,,,,,,,,,,,,,,,,,,,,,,,,,,,,,,,,,,,,,,,172.43651879997924,177.4400266999146,177.4400266999146,177.84251889993902,space,0.3990003999788314,None,,,,,,,,,,,,,,,,,,,,,,,,,,,277114,457303,Hombre,2024-09-18_14h27.41.415,tarea_iceberg,2023.2.3,59.916548251821126,2024-09-18 14h28.08.050583 +0200,
14,-0.7,0.05,,,,,,,,,,,,,,,,,,,,,,,,,,,,,,,,,,,,,,,,,0,2,2,3,,,,,,,,,,,,,,,,,,,,,177.8647308999207,,,,,,,,,,,,,,,,,,,,,,,,,,,,,,,,,,,,,,,,,,,,,,,,,,,,,,,,,,,,177.84278760000598,191.8536345999455,191.8536345999455,192.39718689990696,space,0.5379783000098541,None,,,,,,,,,,,,,,,,,,,,,,,,,,,277114,457303,Hombre,2024-09-18_14h27.41.415,tarea_iceberg,2023.2.3,59.916548251821126,2024-09-18 14h28.08.050583 +0200,
8,-0.3,0.05,,,,,,,,,,,,,,,,,,,,,,,,,,,,,,,,,,,,,,,,,0,3,3,7,,,,,,,,,,,,,,,,,,,,,192.4128650999628,,,,,,,,,,,,,,,,,,,,,,,,,,,,,,,,,,,,,,,,,,,,,,,,,,,,,,,,,,,,192.39764689991716,200.4141263999045,200.4141263999045,201.03865999996196,space,0.6174850000534207,None,,,,,,,,,,,,,,,,,,,,,,,,,,,277114,457303,Hombre,2024-09-18_14h27.41.415,tarea_iceberg,2023.2.3,59.916548251821126,2024-09-18 14h28.08.050583 +0200,
7,-0.2,0.05,,,,,,,,,,,,,,,,,,,,,,,,,,,,,,,,,,,,,,,,,0,4,4,1,,,,,,,,,,,,,,,,,,,,,201.05421189998742,,,,,,,,,,,,,,,,,,,,,,,,,,,,,,,,,,,,,,,,,,,,,,,,,,,,,,,,,,,,201.0391211999813,208.03939709998667,208.03939709998667,208.9072625999106,space,0.864422700018622,None,,,,,,,,,,,,,,,,,,,,,,,,,,,277114,457303,Hombre,2024-09-18_14h27.41.415,tarea_iceberg,2023.2.3,59.916548251821126,2024-09-18 14h28.08.050583 +0200,
7,-0.5,0.05,,,,,,,,,,,,,,,,,,,,,,,,,,,,,,,,,,,,,,,,,0,5,5,4,,,,,,,,,,,,,,,,,,,,,208.9226891999133,,,,,,,,,,,,,,,,,,,,,,,,,,,,,,,,,,,,,,,,,,,,,,,,,,,,,,,,,,,,208.9075249999296,215.9119173999643,215.9119173999643,216.92097529990133,space,1.0074519000481814,None,,,,,,,,,,,,,,,,,,,,,,,,,,,277114,457303,Hombre,2024-09-18_14h27.41.415,tarea_iceberg,2023.2.3,59.916548251821126,2024-09-18 14h28.08.050583 +0200,
13,-0.1,0.05,,,,,,,,,,,,,,,,,,,,,,,,,,,,,,,,,,,,,,,,,0,6,6,6,,,,,,,,,,,,,,,,,,,,,216.93666809995193,,,,,,,,,,,,,,,,,,,,,,,,,,,,,,,,,,,,,,,,,,,,,,,,,,,,,,,,,,,,216.921437199926,229.92517850000877,229.92517850000877,230.5790542999748,space,0.6504405000014231,None,,,,,,,,,,,,,,,,,,,,,,,,,,,277114,457303,Hombre,2024-09-18_14h27.41.415,tarea_iceberg,2023.2.3,59.916548251821126,2024-09-18 14h28.08.050583 +0200,
3,-0.7,0.05,,,,,,,,,,,,,,,,,,,,,,,,,,,,,,,,,,,,,,,,,0,7,7,2,,,,,,,,,,,,,,,,,,,,,230.60812759993132,,,,,,,,,,,,,,,,,,,,,,,,,,,,,,,,,,,,,,,,,,,,,,,,,,,,,,,,,,,,230.57932669995353,233.57866929995362,233.57866929995362,234.2497013999382,space,0.6608357999939471,None,,,,,,,,,,,,,,,,,,,,,,,,,,,277114,457303,Hombre,2024-09-18_14h27.41.415,tarea_iceberg,2023.2.3,59.916548251821126,2024-09-18 14h28.08.050583 +0200,
8,-0.3,0.05,,,,,,,,,,,,,,,,,,,,,,,,,,,,,,,,,,,,,,,,,,,,,0,0,0,7,,,,,,,,,,,,,,,,,234.38562229997478,,,,,,,,,,,,,,,,,,,,,,,,,,,,,,,,,,,,,,,,,,,,,,,,,,,,,,,,,,,,,,,,,,,234.28488269995432,234.2902533999877,None,,,,,,,,,,,,,,,,,,,,,,,,277114,457303,Hombre,2024-09-18_14h27.41.415,tarea_iceberg,2023.2.3,59.916548251821126,2024-09-18 14h28.08.050583 +0200,
7,-0.2,0.05,,,,,,,,,,,,,,,,,,,,,,,,,,,,,,,,,,,,,,,,,,,,,0,1,1,1,,,,,,,,,,,,,,,,,234.38562229997478,,,,,,,,,,,,,,,,,,,,,,,,,,,,,,,,,,,,,,,,,,,,,,,,,,,,,,,,,,,,,,,,,,,234.29053060000297,234.29504459991585,None,,,,,,,,,,,,,,,,,,,,,,,,277114,457303,Hombre,2024-09-18_14h27.41.415,tarea_iceberg,2023.2.3,59.916548251821126,2024-09-18 14h28.08.050583 +0200,
6,0,0.05,,,,,,,,,,,,,,,,,,,,,,,,,,,,,,,,,,,,,,,,,,,,,0,2,2,0,,,,,,,,,,,,,,,,,234.38562229997478,,,,,,,,,,,,,,,,,,,,,,,,,,,,,,,,,,,,,,,,,,,,,,,,,,,,,,,,,,,,,,,,,,,234.29523329995573,234.2995028999867,None,,,,,,,,,,,,,,,,,,,,,,,,277114,457303,Hombre,2024-09-18_14h27.41.415,tarea_iceberg,2023.2.3,59.916548251821126,2024-09-18 14h28.08.050583 +0200,
7,-0.5,0.05,,,,,,,,,,,,,,,,,,,,,,,,,,,,,,,,,,,,,,,,,,,,,0,3,3,4,,,,,,,,,,,,,,,,,234.38562229997478,,,,,,,,,,,,,,,,,,,,,,,,,,,,,,,,,,,,,,,,,,,,,,,,,,,,,,,,,,,,,,,,,,,234.299674400012,234.30373889999464,None,,,,,,,,,,,,,,,,,,,,,,,,277114,457303,Hombre,2024-09-18_14h27.41.415,tarea_iceberg,2023.2.3,59.916548251821126,2024-09-18 14h28.08.050583 +0200,
3,-0.7,0.05,,,,,,,,,,,,,,,,,,,,,,,,,,,,,,,,,,,,,,,,,,,,,0,4,4,2,,,,,,,,,,,,,,,,,234.38562229997478,,,,,,,,,,,,,,,,,,,,,,,,,,,,,,,,,,,,,,,,,,,,,,,,,,,,,,,,,,,,,,,,,,,234.3039353999775,234.30790719995275,None,,,,,,,,,,,,,,,,,,,,,,,,277114,457303,Hombre,2024-09-18_14h27.41.415,tarea_iceberg,2023.2.3,59.916548251821126,2024-09-18 14h28.08.050583 +0200,
14,-0.7,0.05,,,,,,,,,,,,,,,,,,,,,,,,,,,,,,,,,,,,,,,,,,,,,0,5,5,3,,,,,,,,,,,,,,,,,234.38562229997478,,,,,,,,,,,,,,,,,,,,,,,,,,,,,,,,,,,,,,,,,,,,,,,,,,,,,,,,,,,,,,,,,,,234.30808939994313,234.31215549993794,None,,,,,,,,,,,,,,,,,,,,,,,,277114,457303,Hombre,2024-09-18_14h27.41.415,tarea_iceberg,2023.2.3,59.916548251821126,2024-09-18 14h28.08.050583 +0200,
13,-0.1,0.05,,,,,,,,,,,,,,,,,,,,,,,,,,,,,,,,,,,,,,,,,,,,,0,6,6,6,,,,,,,,,,,,,,,,,234.38562229997478,,,,,,,,,,,,,,,,,,,,,,,,,,,,,,,,,,,,,,,,,,,,,,,,,,,,,,,,,,,,,,,,,,,234.3123361999169,234.31632420001552,None,,,,,,,,,,,,,,,,,,,,,,,,277114,457303,Hombre,2024-09-18_14h27.41.415,tarea_iceberg,2023.2.3,59.916548251821126,2024-09-18 14h28.08.050583 +0200,
5,-0.4,0.05,,,,,,,,,,,,,,,,,,,,,,,,,,,,,,,,,,,,,,,,,,,,,0,7,7,5,,,,,,,,,,,,,,,,,234.38562229997478,,,,,,,,,,,,,,,,,,,,,,,,,,,,,,,,,,,,,,,,,,,,,,,,,,,,,,,,,,,,,,,,,,,234.31653800001368,234.3204177999869,None,,,,,,,,,,,,,,,,,,,,,,,,277114,457303,Hombre,2024-09-18_14h27.41.415,tarea_iceberg,2023.2.3,59.916548251821126,2024-09-18 14h28.08.050583 +0200,
5,-0.5,0.05,,,,,,,,,,,,,,,,,,,,,,,,,,,,,,,,,,,,,,,,,,,,,,,,,0,0,0,7,,,,,,,,,,,,,237.17933449998964,,,,,,,,,,,,,,,,,,,,,,,,,,,,,,,,,,,,,,,,,,,,,,,,,,,,,,,,,,,,,,,,,,,,,,234.37404019990936,234.38562229997478,236.381951999967,236.39491109992377,236.4001424999442,None,,,,,,,,,,,,,,,,,,277114,457303,Hombre,2024-09-18_14h27.41.415,tarea_iceberg,2023.2.3,59.916548251821126,2024-09-18 14h28.08.050583 +0200,
3,-0.4,0.05,,,,,,,,,,,,,,,,,,,,,,,,,,,,,,,,,,,,,,,,,,,,,,,,,0,1,1,0,,,,,,,,,,,,,237.17933449998964,,,,,,,,,,,,,,,,,,,,,,,,,,,,,,,,,,,,,,,,,,,,,,,,,,,,,,,,,,,,,,,,,,,,,,,,,236.40044100000523,236.40410689997952,None,,,,,,,,,,,,,,,,,,277114,457303,Hombre,2024-09-18_14h27.41.415,tarea_iceberg,2023.2.3,59.916548251821126,2024-09-18 14h28.08.050583 +0200,
13,-0.6,0.05,,,,,,,,,,,,,,,,,,,,,,,,,,,,,,,,,,,,,,,,,,,,,,,,,0,2,2,5,,,,,,,,,,,,,237.17933449998964,,,,,,,,,,,,,,,,,,,,,,,,,,,,,,,,,,,,,,,,,,,,,,,,,,,,,,,,,,,,,,,,,,,,,,,,,236.4043335999595,236.40788640000392,None,,,,,,,,,,,,,,,,,,277114,457303,Hombre,2024-09-18_14h27.41.415,tarea_iceberg,2023.2.3,59.916548251821126,2024-09-18 14h28.08.050583 +0200,
7,-0.2,0.05,,,,,,,,,,,,,,,,,,,,,,,,,,,,,,,,,,,,,,,,,,,,,,,,,0,3,3,6,,,,,,,,,,,,,237.17933449998964,,,,,,,,,,,,,,,,,,,,,,,,,,,,,,,,,,,,,,,,,,,,,,,,,,,,,,,,,,,,,,,,,,,,,,,,,236.40805939992424,236.4117276999168,None,,,,,,,,,,,,,,,,,,277114,457303,Hombre,2024-09-18_14h27.41.415,tarea_iceberg,2023.2.3,59.916548251821126,2024-09-18 14h28.08.050583 +0200,
5,0,0.05,,,,,,,,,,,,,,,,,,,,,,,,,,,,,,,,,,,,,,,,,,,,,,,,,0,4,4,2,,,,,,,,,,,,,237.17933449998964,,,,,,,,,,,,,,,,,,,,,,,,,,,,,,,,,,,,,,,,,,,,,,,,,,,,,,,,,,,,,,,,,,,,,,,,,236.41194649995305,236.4156374000013,None,,,,,,,,,,,,,,,,,,277114,457303,Hombre,2024-09-18_14h27.41.415,tarea_iceberg,2023.2.3,59.916548251821126,2024-09-18 14h28.08.050583 +0200,
3,-0.6,0.05,,,,,,,,,,,,,,,,,,,,,,,,,,,,,,,,,,,,,,,,,,,,,,,,,0,5,5,1,,,,,,,,,,,,,237.17933449998964,,,,,,,,,,,,,,,,,,,,,,,,,,,,,,,,,,,,,,,,,,,,,,,,,,,,,,,,,,,,,,,,,,,,,,,,,236.41580489999615,236.41934949997813,None,,,,,,,,,,,,,,,,,,277114,457303,Hombre,2024-09-18_14h27.41.415,tarea_iceberg,2023.2.3,59.916548251821126,2024-09-18 14h28.08.050583 +0200,
12,-0.5,0.05,,,,,,,,,,,,,,,,,,,,,,,,,,,,,,,,,,,,,,,,,,,,,,,,,0,6,6,4,,,,,,,,,,,,,237.17933449998964,,,,,,,,,,,,,,,,,,,,,,,,,,,,,,,,,,,,,,,,,,,,,,,,,,,,,,,,,,,,,,,,,,,,,,,,,236.4195192999905,236.42299769993406,None,,,,,,,,,,,,,,,,,,277114,457303,Hombre,2024-09-18_14h27.41.415,tarea_iceberg,2023.2.3,59.916548251821126,2024-09-18 14h28.08.050583 +0200,
6,-0.2,0.05,,,,,,,,,,,,,,,,,,,,,,,,,,,,,,,,,,,,,,,,,,,,,,,,,0,7,7,3,,,,,,,,,,,,,237.17933449998964,,,,,,,,,,,,,,,,,,,,,,,,,,,,,,,,,,,,,,,,,,,,,,,,,,,,,,,,,,,,,,,,,,,,,,,,,236.4231620999053,236.42684969992843,None,,,,,,,,,,,,,,,,,,277114,457303,Hombre,2024-09-18_14h27.41.415,tarea_iceberg,2023.2.3,59.916548251821126,2024-09-18 14h28.08.050583 +0200,
12,-0.5,0.05,,,,,,,,,,,,,,,,,,,,,,,,,,,,,,,,,,,,,,,,,,,,,,,,,,,,,0,0,0,4,,,,,,,,,237.17933449998964,,,,,,,,,,,,,,,,,,,,,,,,,,,,,,,,,,,,,,,,,,,,,,,,,,,,,,,,,,,,,,,,,,,,,,,,,,,,236.4392465999117,236.44375609990675,None,,,,,,,,,,,,,,,277114,457303,Hombre,2024-09-18_14h27.41.415,tarea_iceberg,2023.2.3,59.916548251821126,2024-09-18 14h28.08.050583 +0200,
5,0,0.05,,,,,,,,,,,,,,,,,,,,,,,,,,,,,,,,,,,,,,,,,,,,,,,,,,,,,0,1,1,2,,,,,,,,,237.17933449998964,,,,,,,,,,,,,,,,,,,,,,,,,,,,,,,,,,,,,,,,,,,,,,,,,,,,,,,,,,,,,,,,,,,,,,,,,,,,236.44397349993233,236.44848799996544,None,,,,,,,,,,,,,,,277114,457303,Hombre,2024-09-18_14h27.41.415,tarea_iceberg,2023.2.3,59.916548251821126,2024-09-18 14h28.08.050583 +0200,
3,-0.4,0.05,,,,,,,,,,,,,,,,,,,,,,,,,,,,,,,,,,,,,,,,,,,,,,,,,,,,,0,2,2,0,,,,,,,,,237.17933449998964,,,,,,,,,,,,,,,,,,,,,,,,,,,,,,,,,,,,,,,,,,,,,,,,,,,,,,,,,,,,,,,,,,,,,,,,,,,,236.44868179992773,236.45274609990884,None,,,,,,,,,,,,,,,277114,457303,Hombre,2024-09-18_14h27.41.415,tarea_iceberg,2023.2.3,59.916548251821126,2024-09-18 14h28.08.050583 +0200,
13,-0.6,0.05,,,,,,,,,,,,,,,,,,,,,,,,,,,,,,,,,,,,,,,,,,,,,,,,,,,,,0,3,3,5,,,,,,,,,237.17933449998964,,,,,,,,,,,,,,,,,,,,,,,,,,,,,,,,,,,,,,,,,,,,,,,,,,,,,,,,,,,,,,,,,,,,,,,,,,,,236.45296939997934,236.45695559994783,None,,,,,,,,,,,,,,,277114,457303,Hombre,2024-09-18_14h27.41.415,tarea_iceberg,2023.2.3,59.916548251821126,2024-09-18 14h28.08.050583 +0200,
3,-0.6,0.05,,,,,,,,,,,,,,,,,,,,,,,,,,,,,,,,,,,,,,,,,,,,,,,,,,,,,0,4,4,1,,,,,,,,,237.17933449998964,,,,,,,,,,,,,,,,,,,,,,,,,,,,,,,,,,,,,,,,,,,,,,,,,,,,,,,,,,,,,,,,,,,,,,,,,,,,236.45713180000894,236.46114849997684,None,,,,,,,,,,,,,,,277114,457303,Hombre,2024-09-18_14h27.41.415,tarea_iceberg,2023.2.3,59.916548251821126,2024-09-18 14h28.08.050583 +0200,
6,-0.2,0.05,,,,,,,,,,,,,,,,,,,,,,,,,,,,,,,,,,,,,,,,,,,,,,,,,,,,,0,5,5,3,,,,,,,,,237.17933449998964,,,,,,,,,,,,,,,,,,,,,,,,,,,,,,,,,,,,,,,,,,,,,,,,,,,,,,,,,,,,,,,,,,,,,,,,,,,,236.46135180001147,236.46543119999114,None,,,,,,,,,,,,,,,277114,457303,Hombre,2024-09-18_14h27.41.415,tarea_iceberg,2023.2.3,59.916548251821126,2024-09-18 14h28.08.050583 +0200,
5,-0.5,0.05,,,,,,,,,,,,,,,,,,,,,,,,,,,,,,,,,,,,,,,,,,,,,,,,,,,,,0,6,6,7,,,,,,,,,237.17933449998964,,,,,,,,,,,,,,,,,,,,,,,,,,,,,,,,,,,,,,,,,,,,,,,,,,,,,,,,,,,,,,,,,,,,,,,,,,,,236.4656118999701,236.4696045999881,None,,,,,,,,,,,,,,,277114,457303,Hombre,2024-09-18_14h27.41.415,tarea_iceberg,2023.2.3,59.916548251821126,2024-09-18 14h28.08.050583 +0200,
7,-0.2,0.05,,,,,,,,,,,,,,,,,,,,,,,,,,,,,,,,,,,,,,,,,,,,,,,,,,,,,0,7,7,6,,,,,,,,,237.17933449998964,,,,,,,,,,,,,,,,,,,,,,,,,,,,,,,,,,,,,,,,,,,,,,,,,,,,,,,,,,,,,,,,,,,,,,,,,,,,236.4697879999876,236.4736789999297,None,,,,,,,,,,,,,,,277114,457303,Hombre,2024-09-18_14h27.41.415,tarea_iceberg,2023.2.3,59.916548251821126,2024-09-18 14h28.08.050583 +0200,
7,-0.2,0.05,,,,,,,,,,,,,,,,,,,,,,,,,,,,,,,,,,,,,,,,,,,,,,,,,,,,,,,,,0,0,0,6,,,,,237.17933449998964,,,,,,,,,,,,,,,,,,,,,,,,,,,,,,,,,,,,,,,,,,,,,,,,,,,,,,,,,,,,,,,,,,,,,,,,,,,,,,,236.5151416999288,236.51982899999712,None,,,,,,,,,,,,277114,457303,Hombre,2024-09-18_14h27.41.415,tarea_iceberg,2023.2.3,59.916548251821126,2024-09-18 14h28.08.050583 +0200,
13,-0.6,0.05,,,,,,,,,,,,,,,,,,,,,,,,,,,,,,,,,,,,,,,,,,,,,,,,,,,,,,,,,0,1,1,5,,,,,237.17933449998964,,,,,,,,,,,,,,,,,,,,,,,,,,,,,,,,,,,,,,,,,,,,,,,,,,,,,,,,,,,,,,,,,,,,,,,,,,,,,,,236.52008869999554,236.52429480000865,None,,,,,,,,,,,,277114,457303,Hombre,2024-09-18_14h27.41.415,tarea_iceberg,2023.2.3,59.916548251821126,2024-09-18 14h28.08.050583 +0200,
5,0,0.05,,,,,,,,,,,,,,,,,,,,,,,,,,,,,,,,,,,,,,,,,,,,,,,,,,,,,,,,,0,2,2,2,,,,,237.17933449998964,,,,,,,,,,,,,,,,,,,,,,,,,,,,,,,,,,,,,,,,,,,,,,,,,,,,,,,,,,,,,,,,,,,,,,,,,,,,,,,236.52448629995342,236.52874869992957,None,,,,,,,,,,,,277114,457303,Hombre,2024-09-18_14h27.41.415,tarea_iceberg,2023.2.3,59.916548251821126,2024-09-18 14h28.08.050583 +0200,
5,-0.5,0.05,,,,,,,,,,,,,,,,,,,,,,,,,,,,,,,,,,,,,,,,,,,,,,,,,,,,,,,,,0,3,3,7,,,,,237.17933449998964,,,,,,,,,,,,,,,,,,,,,,,,,,,,,,,,,,,,,,,,,,,,,,,,,,,,,,,,,,,,,,,,,,,,,,,,,,,,,,,236.52898209996056,236.5332832999993,None,,,,,,,,,,,,277114,457303,Hombre,2024-09-18_14h27.41.415,tarea_iceberg,2023.2.3,59.916548251821126,2024-09-18 14h28.08.050583 +0200,
3,-0.6,0.05,,,,,,,,,,,,,,,,,,,,,,,,,,,,,,,,,,,,,,,,,,,,,,,,,,,,,,,,,0,4,4,1,,,,,237.17933449998964,,,,,,,,,,,,,,,,,,,,,,,,,,,,,,,,,,,,,,,,,,,,,,,,,,,,,,,,,,,,,,,,,,,,,,,,,,,,,,,236.53347939997911,236.5376629999373,None,,,,,,,,,,,,277114,457303,Hombre,2024-09-18_14h27.41.415,tarea_iceberg,2023.2.3,59.916548251821126,2024-09-18 14h28.08.050583 +0200,
6,-0.2,0.05,,,,,,,,,,,,,,,,,,,,,,,,,,,,,,,,,,,,,,,,,,,,,,,,,,,,,,,,,0,5,5,3,,,,,237.17933449998964,,,,,,,,,,,,,,,,,,,,,,,,,,,,,,,,,,,,,,,,,,,,,,,,,,,,,,,,,,,,,,,,,,,,,,,,,,,,,,,236.53785560000688,236.5419935999671,None,,,,,,,,,,,,277114,457303,Hombre,2024-09-18_14h27.41.415,tarea_iceberg,2023.2.3,59.916548251821126,2024-09-18 14h28.08.050583 +0200,
3,-0.4,0.05,,,,,,,,,,,,,,,,,,,,,,,,,,,,,,,,,,,,,,,,,,,,,,,,,,,,,,,,,0,6,6,0,,,,,237.17933449998964,,,,,,,,,,,,,,,,,,,,,,,,,,,,,,,,,,,,,,,,,,,,,,,,,,,,,,,,,,,,,,,,,,,,,,,,,,,,,,,236.5421834998997,236.54680209991056,None,,,,,,,,,,,,277114,457303,Hombre,2024-09-18_14h27.41.415,tarea_iceberg,2023.2.3,59.916548251821126,2024-09-18 14h28.08.050583 +0200,
12,-0.5,0.05,,,,,,,,,,,,,,,,,,,,,,,,,,,,,,,,,,,,,,,,,,,,,,,,,,,,,,,,,0,7,7,4,,,,,237.17933449998964,,,,,,,,,,,,,,,,,,,,,,,,,,,,,,,,,,,,,,,,,,,,,,,,,,,,,,,,,,,,,,,,,,,,,,,,,,,,,,,236.54698629991617,236.551369599998,None,,,,,,,,,,,,277114,457303,Hombre,2024-09-18_14h27.41.415,tarea_iceberg,2023.2.3,59.916548251821126,2024-09-18 14h28.08.050583 +0200,
12,-0.5,0.05,,,,,,,,,,,,,,,,,,,,,,,,,,,,,,,,,,,,,,,,,,,,,,,,,,,,,,,,,,,,,0,0,0,4,237.17933449998964,,,,,,,,,,,,,,,,,,,,,,,,,,,,,,,,,,,,,,,,,,,,,,,,,,,,,,,,,,,,,,,,,,,,,,,,,,,,,,,,,,236.58463900000788,248.5781624999363,248.5781624999363,252.0049386000028,space,3.405079999938607,None,,,,,277114,457303,Hombre,2024-09-18_14h27.41.415,tarea_iceberg,2023.2.3,59.916548251821126,2024-09-18 14h28.08.050583 +0200,
13,-0.6,0.05,,,,,,,,,,,,,,,,,,,,,,,,,,,,,,,,,,,,,,,,,,,,,,,,,,,,,,,,,,,,,0,1,1,5,252.02233959990554,,,,,,,,,,,,,,,,,,,,,,,,,,,,,,,,,,,,,,,,,,,,,,,,,,,,,,,,,,,,,,,,,,,,,,,,,,,,,,,,,,252.0055475999834,265.01209199998993,265.01209199998993,267.4719608000014,space,2.4435339000774547,None,,,,,277114,457303,Hombre,2024-09-18_14h27.41.415,tarea_iceberg,2023.2.3,59.916548251821126,2024-09-18 14h28.08.050583 +0200,
3,-0.6,0.05,,,,,,,,,,,,,,,,,,,,,,,,,,,,,,,,,,,,,,,,,,,,,,,,,,,,,,,,,,,,,0,2,2,1,267.48866379994433,,,,,,,,,,,,,,,,,,,,,,,,,,,,,,,,,,,,,,,,,,,,,,,,,,,,,,,,,,,,,,,,,,,,,,,,,,,,,,,,,,267.4722473999718,270.4872476999881,270.4872476999881,273.0710117999697,space,2.5763047999935225,None,,,,,277114,457303,Hombre,2024-09-18_14h27.41.415,tarea_iceberg,2023.2.3,59.916548251821126,2024-09-18 14h28.08.050583 +0200,
6,-0.2,0.05,,,,,,,,,,,,,,,,,,,,,,,,,,,,,,,,,,,,,,,,,,,,,,,,,,,,,,,,,,,,,0,3,3,3,273.08724649995565,,,,,,,,,,,,,,,,,,,,,,,,,,,,,,,,,,,,,,,,,,,,,,,,,,,,,,,,,,,,,,,,,,,,,,,,,,,,,,,,,,273.0712746999925,279.0739620999666,279.0739620999666,280.4676976999035,space,1.3888805999886245,None,,,,,277114,457303,Hombre,2024-09-18_14h27.41.415,tarea_iceberg,2023.2.3,59.916548251821126,2024-09-18 14h28.08.050583 +0200,
5,-0.5,0.05,,,,,,,,,,,,,,,,,,,,,,,,,,,,,,,,,,,,,,,,,,,,,,,,,,,,,,,,,,,,,0,4,4,7,280.48568869999144,,,,,,,,,,,,,,,,,,,,,,,,,,,,,,,,,,,,,,,,,,,,,,,,,,,,,,,,,,,,,,,,,,,,,,,,,,,,,,,,,,280.46814549993724,285.4813656999031,285.4813656999031,286.57351819996256,space,1.0696849999949336,None,,,,,277114,457303,Hombre,2024-09-18_14h27.41.415,tarea_iceberg,2023.2.3,59.916548251821126,2024-09-18 14h28.08.050583 +0200,
5,0,0.05,,,,,,,,,,,,,,,,,,,,,,,,,,,,,,,,,,,,,,,,,,,,,,,,,,,,,,,,,,,,,0,5,5,2,286.5903626999352,,,,,,,,,,,,,,,,,,,,,,,,,,,,,,,,,,,,,,,,,,,,,,,,,,,,,,,,,,,,,,,,,,,,,,,,,,,,,,,,,,286.57408669998404,291.586179099977,291.586179099977,292.098536400008,space,0.5089771999046206,None,,,,,277114,457303,Hombre,2024-09-18_14h27.41.415,tarea_iceberg,2023.2.3,59.916548251821126,2024-09-18 14h28.08.050583 +0200,
3,-0.4,0.05,,,,,,,,,,,,,,,,,,,,,,,,,,,,,,,,,,,,,,,,,,,,,,,,,,,,,,,,,,,,,0,6,6,0,292.11332329991274,,,,,,,,,,,,,,,,,,,,,,,,,,,,,,,,,,,,,,,,,,,,,,,,,,,,,,,,,,,,,,,,,,,,,,,,,,,,,,,,,,292.0988197999541,295.10836660000496,295.10836660000496,295.54334609990474,space,0.42644700000528246,None,,,,,277114,457303,Hombre,2024-09-18_14h27.41.415,tarea_iceberg,2023.2.3,59.916548251821126,2024-09-18 14h28.08.050583 +0200,
7,-0.2,0.05,,,,,,,,,,,,,,,,,,,,,,,,,,,,,,,,,,,,,,,,,,,,,,,,,,,,,,,,,,,,,0,7,7,6,295.5580665000016,,,,,,,,,,,,,,,,,,,,,,,,,,,,,,,,,,,,,,,,,,,,,,,,,,,,,,,,,,,,,,,,,,,,,,,,,,,,,,,,,,295.54362759995274,302.5521004999755,302.5521004999755,302.98589819995686,space,0.4306224000174552,None,,,,,277114,457303,Hombre,2024-09-18_14h27.41.415,tarea_iceberg,2023.2.3,59.916548251821126,2024-09-18 14h28.08.050583 +0200,
,,,,,,,,,,,,,,,,,,,,,,,,,,,,,,,,,,,,,,,,,,,,,,,,,,,,,,,,,,,,,,,,,,,,,,,,,,,,,,,,,,,,,,,,,,,,,,,,,,,,,,,,,,,,,,,,,,,,,,,,,,,,,,,,,,,,,,,,,,,,,,,,,,,,,,,,,,,,303.0241163999308,303.03217689995654,305.03416489996016,305.0175534998998,,,,,,,,,
