timepresentation,posx,posy,trials.thisRepN,trials.thisTrialN,trials.thisN,trials.thisIndex,trials_2.thisRepN,trials_2.thisTrialN,trials_2.thisN,trials_2.thisIndex,trials_3.thisRepN,trials_3.thisTrialN,trials_3.thisN,trials_3.thisIndex,trials_4.thisRepN,trials_4.thisTrialN,trials_4.thisN,trials_4.thisIndex,trials_5.thisRepN,trials_5.thisTrialN,trials_5.thisN,trials_5.thisIndex,trials_6.thisRepN,trials_6.thisTrialN,trials_6.thisN,trials_6.thisIndex,trials_7.thisRepN,trials_7.thisTrialN,trials_7.thisN,trials_7.thisIndex,trials_8.thisRepN,trials_8.thisTrialN,trials_8.thisN,trials_8.thisIndex,trials_9.thisRepN,trials_9.thisTrialN,trials_9.thisN,trials_9.thisIndex,trials_10.thisRepN,trials_10.thisTrialN,trials_10.thisN,trials_10.thisIndex,trials_11.thisRepN,trials_11.thisTrialN,trials_11.thisN,trials_11.thisIndex,trials_12.thisRepN,trials_12.thisTrialN,trials_12.thisN,trials_12.thisIndex,trials_13.thisRepN,trials_13.thisTrialN,trials_13.thisN,trials_13.thisIndex,trials_14.thisRepN,trials_14.thisTrialN,trials_14.thisN,trials_14.thisIndex,trials_15.thisRepN,trials_15.thisTrialN,trials_15.thisN,trials_15.thisIndex,trials_16.thisRepN,trials_16.thisTrialN,trials_16.thisN,trials_16.thisIndex,thisRow.t,notes,portada.started,image_5.started,text_6.started,portada.stopped,instructions.started,text_5.started,key_resp_5.started,instructions.stopped,key_resp_5.keys,key_resp_5.rt,key_resp_5.duration,Ronda_1.started,text_7.started,Ronda_1.stopped,control.started,control.stopped,key_resp.keys,music.started,music.stopped,key_resp_2.keys,music_words.started,music_words.stopped,key_resp_3.keys,music_video.started,image_4.started,Key_resp_4.started,music_video.stopped,Key_resp_4.keys,Key_resp_4.rt,Key_resp_4.duration,Ronda_2.started,text_8.started,text_8.stopped,Ronda_2.stopped,control2.started,control2.stopped,key_resp_6.keys,music2.started,image_7.started,key_resp_7.started,music2.stopped,key_resp_7.keys,key_resp_7.rt,key_resp_7.duration,music_words2.started,music_words2.stopped,key_resp_8.keys,music_video2.started,music_video2.stopped,Key_resp.keys,Ronda_3.started,text_9.started,Ronda_3.stopped,control3.started,image_10.started,key_resp_9.started,control3.stopped,key_resp_9.keys,key_resp_9.rt,key_resp_9.duration,music3.started,music3.stopped,key_resp_10.keys,music_words3.started,music_words3.stopped,key_resp_11.keys,music_video3.started,music_video3.stopped,Key_resp_2.keys,Ronda_4.started,text_10.started,Ronda_4.stopped,control4.started,control4.stopped,key_resp_12.keys,music4.started,music4.stopped,key_resp_13.keys,music_words4.started,image_16.started,key_resp_14.started,music_words4.stopped,key_resp_14.keys,key_resp_14.rt,key_resp_14.duration,music_video4.started,music_video4.stopped,Key_resp_3.keys,final.started,text_4.started,text_4.stopped,final.stopped,participant,Edad,Sexo,date,expName,psychopyVersion,frameRate,expStart,
,,,,,,,,,,,,,,,,,,,,,,,,,,,,,,,,,,,,,,,,,,,,,,,,,,,,,,,,,,,,,,,,,,,,,0.005523000028915703,0.019692900008521974,0.019692900008521974,3.0069142000284046,3.0069290000246838,3.0232667999807745,6.009193000034429,8.363078900030814,space,2.337887499947101,None,,,,,,,,,,,,,,,,,,,,,,,,,,,,,,,,,,,,,,,,,,,,,,,,,,,,,,,,,,,,,,,,,,,,,,,,,,,,,,,,,,558702,719843,Hombre,2024-09-18_13h04.30.525,tarea_iceberg,2023.2.3,59.7160382875875,2024-09-18 13h04.57.259747 +0200,
9,-0.6,0.15,0,0,0,0,,,,,,,,,,,,,,,,,,,,,,,,,,,,,,,,,,,,,,,,,,,,,,,,,,,,,,,,,,,,,10.515240799984895,,,,,,,,,,,,,8.363117600092664,8.378716300008819,10.364107300061733,10.403535500052385,10.409132400061935,None,,,,,,,,,,,,,,,,,,,,,,,,,,,,,,,,,,,,,,,,,,,,,,,,,,,,,,,,,,,,,,,,,,,,,,,,,,,,558702,719843,Hombre,2024-09-18_13h04.30.525,tarea_iceberg,2023.2.3,59.7160382875875,2024-09-18 13h04.57.259747 +0200,
11,0.7,0.1,0,1,1,1,,,,,,,,,,,,,,,,,,,,,,,,,,,,,,,,,,,,,,,,,,,,,,,,,,,,,,,,,,,,,10.515240799984895,,,,,,,,,,,,,,,,10.409355400013737,10.413642200059257,None,,,,,,,,,,,,,,,,,,,,,,,,,,,,,,,,,,,,,,,,,,,,,,,,,,,,,,,,,,,,,,,,,,,,,,,,,,,,558702,719843,Hombre,2024-09-18_13h04.30.525,tarea_iceberg,2023.2.3,59.7160382875875,2024-09-18 13h04.57.259747 +0200,
9,-0.6,0.15,,,,,0,0,0,0,,,,,,,,,,,,,,,,,,,,,,,,,,,,,,,,,,,,,,,,,,,,,,,,,,,,,,,,,10.515240799984895,,,,,,,,,,,,,,,,,,,10.421307799988426,10.425847499980591,None,,,,,,,,,,,,,,,,,,,,,,,,,,,,,,,,,,,,,,,,,,,,,,,,,,,,,,,,,,,,,,,,,,,,,,,,,558702,719843,Hombre,2024-09-18_13h04.30.525,tarea_iceberg,2023.2.3,59.7160382875875,2024-09-18 13h04.57.259747 +0200,
11,0.7,0.1,,,,,0,1,1,1,,,,,,,,,,,,,,,,,,,,,,,,,,,,,,,,,,,,,,,,,,,,,,,,,,,,,,,,,10.515240799984895,,,,,,,,,,,,,,,,,,,10.426076600095257,10.430311200092547,None,,,,,,,,,,,,,,,,,,,,,,,,,,,,,,,,,,,,,,,,,,,,,,,,,,,,,,,,,,,,,,,,,,,,,,,,,558702,719843,Hombre,2024-09-18_13h04.30.525,tarea_iceberg,2023.2.3,59.7160382875875,2024-09-18 13h04.57.259747 +0200,
9,-0.6,0.15,,,,,,,,,0,0,0,0,,,,,,,,,,,,,,,,,,,,,,,,,,,,,,,,,,,,,,,,,,,,,,,,,,,,,10.515240799984895,,,,,,,,,,,,,,,,,,,,,,10.462619199999608,10.469991800026037,None,,,,,,,,,,,,,,,,,,,,,,,,,,,,,,,,,,,,,,,,,,,,,,,,,,,,,,,,,,,,,,,,,,,,,,558702,719843,Hombre,2024-09-18_13h04.30.525,tarea_iceberg,2023.2.3,59.7160382875875,2024-09-18 13h04.57.259747 +0200,
11,0.7,0.1,,,,,,,,,0,1,1,1,,,,,,,,,,,,,,,,,,,,,,,,,,,,,,,,,,,,,,,,,,,,,,,,,,,,,10.515240799984895,,,,,,,,,,,,,,,,,,,,,,10.470269600045867,10.474393800017424,None,,,,,,,,,,,,,,,,,,,,,,,,,,,,,,,,,,,,,,,,,,,,,,,,,,,,,,,,,,,,,,,,,,,,,,558702,719843,Hombre,2024-09-18_13h04.30.525,tarea_iceberg,2023.2.3,59.7160382875875,2024-09-18 13h04.57.259747 +0200,
12,0.8,0.1,,,,,,,,,,,,,0,0,0,0,,,,,,,,,,,,,,,,,,,,,,,,,,,,,,,,,,,,,,,,,,,,,,,,,10.515240799984895,,,,,,,,,,,,,,,,,,,,,,,,,10.501105700037442,22.508989399997517,22.508989399997517,23.46617020003032,space,0.9561946999747306,None,,,,,,,,,,,,,,,,,,,,,,,,,,,,,,,,,,,,,,,,,,,,,,,,,,,,,,,,,,,,,,,558702,719843,Hombre,2024-09-18_13h04.30.525,tarea_iceberg,2023.2.3,59.7160382875875,2024-09-18 13h04.57.259747 +0200,
9,0.9,0.1,,,,,,,,,,,,,0,1,1,1,,,,,,,,,,,,,,,,,,,,,,,,,,,,,,,,,,,,,,,,,,,,,,,,,23.481254699989222,,,,,,,,,,,,,,,,,,,,,,,,,23.466557300067507,32.469094400061294,32.469094400061294,33.126676200074144,space,0.6367778000421822,None,,,,,,,,,,,,,,,,,,,,,,,,,,,,,,,,,,,,,,,,,,,,,,,,,,,,,,,,,,,,,,,558702,719843,Hombre,2024-09-18_13h04.30.525,tarea_iceberg,2023.2.3,59.7160382875875,2024-09-18 13h04.57.259747 +0200,
11,0.6,0.1,,,,,,,,,,,,,,,,,0,0,0,1,,,,,,,,,,,,,,,,,,,,,,,,,,,,,,,,,,,,,,,,,,,,,35.483070800080895,,,,,,,,,,,,,,,,,,,,,,,,,,,,,,,,33.17437100003008,33.18349279998802,35.483070800080895,35.172597000026144,35.17988100007642,35.1847650000127,None,,,,,,,,,,,,,,,,,,,,,,,,,,,,,,,,,,,,,,,,,,,,,,,,,,,,,,,,558702,719843,Hombre,2024-09-18_13h04.30.525,tarea_iceberg,2023.2.3,59.7160382875875,2024-09-18 13h04.57.259747 +0200,
11,-0.6,0.15,,,,,,,,,,,,,,,,,0,1,1,0,,,,,,,,,,,,,,,,,,,,,,,,,,,,,,,,,,,,,,,,,,,,,35.483070800080895,,,,,,,,,,,,,,,,,,,,,,,,,,,,,,,,,,,,35.185014500049874,35.18946430005599,None,,,,,,,,,,,,,,,,,,,,,,,,,,,,,,,,,,,,,,,,,,,,,,,,,,,,,,,,558702,719843,Hombre,2024-09-18_13h04.30.525,tarea_iceberg,2023.2.3,59.7160382875875,2024-09-18 13h04.57.259747 +0200,
11,0.6,0.1,,,,,,,,,,,,,,,,,,,,,0,0,0,1,,,,,,,,,,,,,,,,,,,,,,,,,,,,,,,,,,,,,,,,,35.483070800080895,,,,,,,,,,,,,,,,,,,,,,,,,,,,,,,,,,,,,,,35.196308200014755,46.199505600030534,46.199505600030534,46.840392200043425,space,0.6264913000632077,None,,,,,,,,,,,,,,,,,,,,,,,,,,,,,,,,,,,,,,,,,,,,,,,,,558702,719843,Hombre,2024-09-18_13h04.30.525,tarea_iceberg,2023.2.3,59.7160382875875,2024-09-18 13h04.57.259747 +0200,
11,-0.6,0.15,,,,,,,,,,,,,,,,,,,,,0,1,1,0,,,,,,,,,,,,,,,,,,,,,,,,,,,,,,,,,,,,,,,,,46.85492170008365,,,,,,,,,,,,,,,,,,,,,,,,,,,,,,,,,,,,,,,46.84076590009499,57.84422980004456,57.84422980004456,58.23358170001302,space,0.3738358000991866,None,,,,,,,,,,,,,,,,,,,,,,,,,,,,,,,,,,,,,,,,,,,,,,,,,558702,719843,Hombre,2024-09-18_13h04.30.525,tarea_iceberg,2023.2.3,59.7160382875875,2024-09-18 13h04.57.259747 +0200,
11,-0.6,0.15,,,,,,,,,,,,,,,,,,,,,,,,,0,0,0,0,,,,,,,,,,,,,,,,,,,,,,,,,,,,,,,,,,,,,58.384310800000094,,,,,,,,,,,,,,,,,,,,,,,,,,,,,,,,,,,,,,,,,,,,,,58.26189710001927,58.26663080009166,None,,,,,,,,,,,,,,,,,,,,,,,,,,,,,,,,,,,,,,,,,,,,,,558702,719843,Hombre,2024-09-18_13h04.30.525,tarea_iceberg,2023.2.3,59.7160382875875,2024-09-18 13h04.57.259747 +0200,
11,0.6,0.1,,,,,,,,,,,,,,,,,,,,,,,,,0,1,1,1,,,,,,,,,,,,,,,,,,,,,,,,,,,,,,,,,,,,,58.384310800000094,,,,,,,,,,,,,,,,,,,,,,,,,,,,,,,,,,,,,,,,,,,,,,58.26684160006698,58.27078970009461,None,,,,,,,,,,,,,,,,,,,,,,,,,,,,,,,,,,,,,,,,,,,,,,558702,719843,Hombre,2024-09-18_13h04.30.525,tarea_iceberg,2023.2.3,59.7160382875875,2024-09-18 13h04.57.259747 +0200,
14,-0.7,0.15,,,,,,,,,,,,,,,,,,,,,,,,,,,,,0,0,0,0,,,,,,,,,,,,,,,,,,,,,,,,,,,,,,,,,58.384310800000094,,,,,,,,,,,,,,,,,,,,,,,,,,,,,,,,,,,,,,,,,,,,,,,,,58.302320200018585,58.30796070001088,None,,,,,,,,,,,,,,,,,,,,,,,,,,,,,,,,,,,,,,,,,,,558702,719843,Hombre,2024-09-18_13h04.30.525,tarea_iceberg,2023.2.3,59.7160382875875,2024-09-18 13h04.57.259747 +0200,
4,-0.6,0.15,,,,,,,,,,,,,,,,,,,,,,,,,,,,,0,1,1,1,,,,,,,,,,,,,,,,,,,,,,,,,,,,,,,,,58.384310800000094,,,,,,,,,,,,,,,,,,,,,,,,,,,,,,,,,,,,,,,,,,,,,,,,,58.30822720006108,58.312380800023675,None,,,,,,,,,,,,,,,,,,,,,,,,,,,,,,,,,,,,,,,,,,,558702,719843,Hombre,2024-09-18_13h04.30.525,tarea_iceberg,2023.2.3,59.7160382875875,2024-09-18 13h04.57.259747 +0200,
10,0.9,0.1,,,,,,,,,,,,,,,,,,,,,,,,,,,,,,,,,0,0,0,0,,,,,,,,,,,,,,,,,,,,,,,,,,,,,60.6958191000158,,,,,,,,,,,,,,,,,,,,,,,,,,,,,,,,,,,,,,,,,,,,,,,,,,,,58.374977500061505,58.384310800000094,60.380522900028154,60.38806710008066,70.38989750004839,70.38989750004839,70.90816980006639,space,0.5155412000603974,None,,,,,,,,,,,,,,,,,,,,,,,,,,,,,,,,,558702,719843,Hombre,2024-09-18_13h04.30.525,tarea_iceberg,2023.2.3,59.7160382875875,2024-09-18 13h04.57.259747 +0200,
11,-0.6,0.15,,,,,,,,,,,,,,,,,,,,,,,,,,,,,,,,,0,1,1,1,,,,,,,,,,,,,,,,,,,,,,,,,,,,,70.9241707000183,,,,,,,,,,,,,,,,,,,,,,,,,,,,,,,,,,,,,,,,,,,,,,,,,,,,,,,70.90854590001982,81.9186655000085,81.9186655000085,82.30913509998936,space,0.3716501999879256,None,,,,,,,,,,,,,,,,,,,,,,,,,,,,,,,,,558702,719843,Hombre,2024-09-18_13h04.30.525,tarea_iceberg,2023.2.3,59.7160382875875,2024-09-18 13h04.57.259747 +0200,
11,-0.6,0.15,,,,,,,,,,,,,,,,,,,,,,,,,,,,,,,,,,,,,0,0,0,1,,,,,,,,,,,,,,,,,,,,,,,,,82.47583690006286,,,,,,,,,,,,,,,,,,,,,,,,,,,,,,,,,,,,,,,,,,,,,,,,,,,,,,,,,,,,,,82.31698900007177,82.322518400033,None,,,,,,,,,,,,,,,,,,,,,,,,,,,,,,558702,719843,Hombre,2024-09-18_13h04.30.525,tarea_iceberg,2023.2.3,59.7160382875875,2024-09-18 13h04.57.259747 +0200,
10,0.9,0.1,,,,,,,,,,,,,,,,,,,,,,,,,,,,,,,,,,,,,0,1,1,0,,,,,,,,,,,,,,,,,,,,,,,,,82.47583690006286,,,,,,,,,,,,,,,,,,,,,,,,,,,,,,,,,,,,,,,,,,,,,,,,,,,,,,,,,,,,,,82.32276610005647,82.326716999989,None,,,,,,,,,,,,,,,,,,,,,,,,,,,,,,558702,719843,Hombre,2024-09-18_13h04.30.525,tarea_iceberg,2023.2.3,59.7160382875875,2024-09-18 13h04.57.259747 +0200,
10,0.9,0.1,,,,,,,,,,,,,,,,,,,,,,,,,,,,,,,,,,,,,,,,,0,0,0,0,,,,,,,,,,,,,,,,,,,,,82.47583690006286,,,,,,,,,,,,,,,,,,,,,,,,,,,,,,,,,,,,,,,,,,,,,,,,,,,,,,,,,,,,,,,,,82.3613266000757,82.36628090008162,None,,,,,,,,,,,,,,,,,,,,,,,,,,,558702,719843,Hombre,2024-09-18_13h04.30.525,tarea_iceberg,2023.2.3,59.7160382875875,2024-09-18 13h04.57.259747 +0200,
11,-0.6,0.15,,,,,,,,,,,,,,,,,,,,,,,,,,,,,,,,,,,,,,,,,0,1,1,1,,,,,,,,,,,,,,,,,,,,,82.47583690006286,,,,,,,,,,,,,,,,,,,,,,,,,,,,,,,,,,,,,,,,,,,,,,,,,,,,,,,,,,,,,,,,,82.36653930007014,82.37088920001406,None,,,,,,,,,,,,,,,,,,,,,,,,,,,558702,719843,Hombre,2024-09-18_13h04.30.525,tarea_iceberg,2023.2.3,59.7160382875875,2024-09-18 13h04.57.259747 +0200,
5,0.9,0.1,,,,,,,,,,,,,,,,,,,,,,,,,,,,,,,,,,,,,,,,,,,,,0,0,0,1,,,,,,,,,,,,,,,,,82.47583690006286,,,,,,,,,,,,,,,,,,,,,,,,,,,,,,,,,,,,,,,,,,,,,,,,,,,,,,,,,,,,,,,,,,,,82.4104516999796,82.41604480007663,None,,,,,,,,,,,,,,,,,,,,,,,,558702,719843,Hombre,2024-09-18_13h04.30.525,tarea_iceberg,2023.2.3,59.7160382875875,2024-09-18 13h04.57.259747 +0200,
9,0.5,0.1,,,,,,,,,,,,,,,,,,,,,,,,,,,,,,,,,,,,,,,,,,,,,0,1,1,0,,,,,,,,,,,,,,,,,82.47583690006286,,,,,,,,,,,,,,,,,,,,,,,,,,,,,,,,,,,,,,,,,,,,,,,,,,,,,,,,,,,,,,,,,,,,82.41629470000044,82.42038600007072,None,,,,,,,,,,,,,,,,,,,,,,,,558702,719843,Hombre,2024-09-18_13h04.30.525,tarea_iceberg,2023.2.3,59.7160382875875,2024-09-18 13h04.57.259747 +0200,
7,0.6,0.1,,,,,,,,,,,,,,,,,,,,,,,,,,,,,,,,,,,,,,,,,,,,,,,,,0,0,0,1,,,,,,,,,,,,,84.84645349998027,,,,,,,,,,,,,,,,,,,,,,,,,,,,,,,,,,,,,,,,,,,,,,,,,,,,,,,,,,,,,,,,,,,,,,,82.46490320004523,82.47583690006286,84.471397300018,84.47904660005588,84.4840978999855,None,,,,,,,,,,,,,,,,,,558702,719843,Hombre,2024-09-18_13h04.30.525,tarea_iceberg,2023.2.3,59.7160382875875,2024-09-18 13h04.57.259747 +0200,
5,0.8,0.1,,,,,,,,,,,,,,,,,,,,,,,,,,,,,,,,,,,,,,,,,,,,,,,,,0,1,1,0,,,,,,,,,,,,,84.84645349998027,,,,,,,,,,,,,,,,,,,,,,,,,,,,,,,,,,,,,,,,,,,,,,,,,,,,,,,,,,,,,,,,,,,,,,,,,,84.48435420007445,84.48849340004381,None,,,,,,,,,,,,,,,,,,558702,719843,Hombre,2024-09-18_13h04.30.525,tarea_iceberg,2023.2.3,59.7160382875875,2024-09-18 13h04.57.259747 +0200,
7,0.6,0.1,,,,,,,,,,,,,,,,,,,,,,,,,,,,,,,,,,,,,,,,,,,,,,,,,,,,,0,0,0,1,,,,,,,,,84.84645349998027,,,,,,,,,,,,,,,,,,,,,,,,,,,,,,,,,,,,,,,,,,,,,,,,,,,,,,,,,,,,,,,,,,,,,,,,,,,,,84.49607600003947,84.50005690008402,None,,,,,,,,,,,,,,,558702,719843,Hombre,2024-09-18_13h04.30.525,tarea_iceberg,2023.2.3,59.7160382875875,2024-09-18 13h04.57.259747 +0200,
5,0.8,0.1,,,,,,,,,,,,,,,,,,,,,,,,,,,,,,,,,,,,,,,,,,,,,,,,,,,,,0,1,1,0,,,,,,,,,84.84645349998027,,,,,,,,,,,,,,,,,,,,,,,,,,,,,,,,,,,,,,,,,,,,,,,,,,,,,,,,,,,,,,,,,,,,,,,,,,,,,84.5003920000745,84.50521179998759,None,,,,,,,,,,,,,,,558702,719843,Hombre,2024-09-18_13h04.30.525,tarea_iceberg,2023.2.3,59.7160382875875,2024-09-18 13h04.57.259747 +0200,
7,0.6,0.1,,,,,,,,,,,,,,,,,,,,,,,,,,,,,,,,,,,,,,,,,,,,,,,,,,,,,,,,,0,0,0,1,,,,,84.84645349998027,,,,,,,,,,,,,,,,,,,,,,,,,,,,,,,,,,,,,,,,,,,,,,,,,,,,,,,,,,,,,,,,,,,,,,,,,,,,,,,,84.5327011999907,91.5275170999812,91.5275170999812,91.91880840004887,space,0.38566699996590614,None,,,,,,,,558702,719843,Hombre,2024-09-18_13h04.30.525,tarea_iceberg,2023.2.3,59.7160382875875,2024-09-18 13h04.57.259747 +0200,
5,0.8,0.1,,,,,,,,,,,,,,,,,,,,,,,,,,,,,,,,,,,,,,,,,,,,,,,,,,,,,,,,,0,1,1,0,,,,,91.93327879998833,,,,,,,,,,,,,,,,,,,,,,,,,,,,,,,,,,,,,,,,,,,,,,,,,,,,,,,,,,,,,,,,,,,,,,,,,,,,,,,,91.9194642000366,96.93305470002815,96.93305470002815,97.33762140001636,space,0.3882315999362618,None,,,,,,,,558702,719843,Hombre,2024-09-18_13h04.30.525,tarea_iceberg,2023.2.3,59.7160382875875,2024-09-18 13h04.57.259747 +0200,
9,0.9,0.1,,,,,,,,,,,,,,,,,,,,,,,,,,,,,,,,,,,,,,,,,,,,,,,,,,,,,,,,,,,,,0,0,0,1,97.43226020003203,,,,,,,,,,,,,,,,,,,,,,,,,,,,,,,,,,,,,,,,,,,,,,,,,,,,,,,,,,,,,,,,,,,,,,,,,,,,,,,,,,,,,,,97.37139139999636,97.37767890002578,None,,,,,558702,719843,Hombre,2024-09-18_13h04.30.525,tarea_iceberg,2023.2.3,59.7160382875875,2024-09-18 13h04.57.259747 +0200,
7,-0.7,0.15,,,,,,,,,,,,,,,,,,,,,,,,,,,,,,,,,,,,,,,,,,,,,,,,,,,,,,,,,,,,,0,1,1,0,97.43226020003203,,,,,,,,,,,,,,,,,,,,,,,,,,,,,,,,,,,,,,,,,,,,,,,,,,,,,,,,,,,,,,,,,,,,,,,,,,,,,,,,,,,,,,,97.37794849998318,97.38256310008,None,,,,,558702,719843,Hombre,2024-09-18_13h04.30.525,tarea_iceberg,2023.2.3,59.7160382875875,2024-09-18 13h04.57.259747 +0200,
,,,,,,,,,,,,,,,,,,,,,,,,,,,,,,,,,,,,,,,,,,,,,,,,,,,,,,,,,,,,,,,,,,,,,,,,,,,,,,,,,,,,,,,,,,,,,,,,,,,,,,,,,,,,,,,,,,,,,,,,,,,,,,,,,,,,,,,,,,,,,,,,,,,,,,,,,,,,,97.42441069998313,97.43226020003203,99.43603270000312,99.41980690008495,,,,,,,,,
