timepresentation,posx,posy,trials.thisRepN,trials.thisTrialN,trials.thisN,trials.thisIndex,trials_2.thisRepN,trials_2.thisTrialN,trials_2.thisN,trials_2.thisIndex,trials_3.thisRepN,trials_3.thisTrialN,trials_3.thisN,trials_3.thisIndex,trials_4.thisRepN,trials_4.thisTrialN,trials_4.thisN,trials_4.thisIndex,trials_5.thisRepN,trials_5.thisTrialN,trials_5.thisN,trials_5.thisIndex,trials_6.thisRepN,trials_6.thisTrialN,trials_6.thisN,trials_6.thisIndex,trials_7.thisRepN,trials_7.thisTrialN,trials_7.thisN,trials_7.thisIndex,trials_8.thisRepN,trials_8.thisTrialN,trials_8.thisN,trials_8.thisIndex,trials_9.thisRepN,trials_9.thisTrialN,trials_9.thisN,trials_9.thisIndex,trials_10.thisRepN,trials_10.thisTrialN,trials_10.thisN,trials_10.thisIndex,trials_11.thisRepN,trials_11.thisTrialN,trials_11.thisN,trials_11.thisIndex,trials_12.thisRepN,trials_12.thisTrialN,trials_12.thisN,trials_12.thisIndex,trials_13.thisRepN,trials_13.thisTrialN,trials_13.thisN,trials_13.thisIndex,trials_14.thisRepN,trials_14.thisTrialN,trials_14.thisN,trials_14.thisIndex,trials_15.thisRepN,trials_15.thisTrialN,trials_15.thisN,trials_15.thisIndex,trials_16.thisRepN,trials_16.thisTrialN,trials_16.thisN,trials_16.thisIndex,thisRow.t,notes,portada.started,image_5.started,text_6.started,portada.stopped,instructions.started,text_5.started,key_resp_5.started,instructions.stopped,key_resp_5.keys,key_resp_5.rt,key_resp_5.duration,Ronda_1.started,text_7.started,Ronda_1.stopped,control.started,control.stopped,key_resp.keys,music.started,music.stopped,key_resp_2.keys,music_words.started,image_3.started,key_resp_3.started,music_words.stopped,key_resp_3.keys,key_resp_3.rt,key_resp_3.duration,music_video.started,music_video.stopped,Key_resp_4.keys,Ronda_2.started,text_8.started,text_8.stopped,Ronda_2.stopped,control2.started,image_6.started,key_resp_6.started,control2.stopped,key_resp_6.keys,key_resp_6.rt,key_resp_6.duration,music2.started,music2.stopped,key_resp_7.keys,music_words2.started,music_words2.stopped,key_resp_8.keys,music_video2.started,music_video2.stopped,Key_resp.keys,Ronda_3.started,text_9.started,text_9.stopped,Ronda_3.stopped,control3.started,control3.stopped,key_resp_9.keys,music3.started,music3.stopped,key_resp_10.keys,music_words3.started,music_words3.stopped,key_resp_11.keys,music_video3.started,image_13.started,Key_resp_2.started,music_video3.stopped,Key_resp_2.keys,Key_resp_2.rt,Key_resp_2.duration,Ronda_4.started,text_10.started,Ronda_4.stopped,control4.started,control4.stopped,key_resp_12.keys,music4.started,image_15.started,key_resp_13.started,music4.stopped,key_resp_13.keys,key_resp_13.rt,key_resp_13.duration,music_words4.started,music_words4.stopped,key_resp_14.keys,music_video4.started,music_video4.stopped,Key_resp_3.keys,final.started,text_4.started,text_4.stopped,final.stopped,participant,Edad,Sexo,date,expName,psychopyVersion,frameRate,expStart,
,,,,,,,,,,,,,,,,,,,,,,,,,,,,,,,,,,,,,,,,,,,,,,,,,,,,,,,,,,,,,,,,,,,,,0.005549199995584786,0.024096000008285046,0.024096000008285046,3.0109472000040114,3.010956500074826,3.0274313000263646,6.013999800081365,15.224411600036547,space,9.194507999927737,None,,,,,,,,,,,,,,,,,,,,,,,,,,,,,,,,,,,,,,,,,,,,,,,,,,,,,,,,,,,,,,,,,,,,,,,,,,,,,,,,,,,897199,842523,Hombre,2024-09-18_17h07.48.752,tarea_iceberg,2023.2.3,59.73876239185745,2024-09-18 17h08.17.505768 +0200,
5,0.5,0.05,0,0,0,4,,,,,,,,,,,,,,,,,,,,,,,,,,,,,,,,,,,,,,,,,,,,,,,,,,,,,,,,,,,,,17.428720699972473,,,,,,,,,,,,,15.224441100028343,15.239032600075006,17.22506650001742,17.28077700000722,17.28625650005415,None,,,,,,,,,,,,,,,,,,,,,,,,,,,,,,,,,,,,,,,,,,,,,,,,,,,,,,,,,,,,,,,,,,,,,,,,,,,,,897199,842523,Hombre,2024-09-18_17h07.48.752,tarea_iceberg,2023.2.3,59.73876239185745,2024-09-18 17h08.17.505768 +0200,
15,0.5,0.05,0,1,1,7,,,,,,,,,,,,,,,,,,,,,,,,,,,,,,,,,,,,,,,,,,,,,,,,,,,,,,,,,,,,,17.428720699972473,,,,,,,,,,,,,,,,17.286482600029558,17.29114290000871,None,,,,,,,,,,,,,,,,,,,,,,,,,,,,,,,,,,,,,,,,,,,,,,,,,,,,,,,,,,,,,,,,,,,,,,,,,,,,,897199,842523,Hombre,2024-09-18_17h07.48.752,tarea_iceberg,2023.2.3,59.73876239185745,2024-09-18 17h08.17.505768 +0200,
9,0.1,0.05,0,2,2,5,,,,,,,,,,,,,,,,,,,,,,,,,,,,,,,,,,,,,,,,,,,,,,,,,,,,,,,,,,,,,17.428720699972473,,,,,,,,,,,,,,,,17.291326500009745,17.295434199972078,None,,,,,,,,,,,,,,,,,,,,,,,,,,,,,,,,,,,,,,,,,,,,,,,,,,,,,,,,,,,,,,,,,,,,,,,,,,,,,897199,842523,Hombre,2024-09-18_17h07.48.752,tarea_iceberg,2023.2.3,59.73876239185745,2024-09-18 17h08.17.505768 +0200,
8,0.1,0.05,0,3,3,1,,,,,,,,,,,,,,,,,,,,,,,,,,,,,,,,,,,,,,,,,,,,,,,,,,,,,,,,,,,,,17.428720699972473,,,,,,,,,,,,,,,,17.29561220004689,17.300222599995323,None,,,,,,,,,,,,,,,,,,,,,,,,,,,,,,,,,,,,,,,,,,,,,,,,,,,,,,,,,,,,,,,,,,,,,,,,,,,,,897199,842523,Hombre,2024-09-18_17h07.48.752,tarea_iceberg,2023.2.3,59.73876239185745,2024-09-18 17h08.17.505768 +0200,
13,0.3,0.05,0,4,4,3,,,,,,,,,,,,,,,,,,,,,,,,,,,,,,,,,,,,,,,,,,,,,,,,,,,,,,,,,,,,,17.428720699972473,,,,,,,,,,,,,,,,17.300412100041285,17.30472480005119,None,,,,,,,,,,,,,,,,,,,,,,,,,,,,,,,,,,,,,,,,,,,,,,,,,,,,,,,,,,,,,,,,,,,,,,,,,,,,,897199,842523,Hombre,2024-09-18_17h07.48.752,tarea_iceberg,2023.2.3,59.73876239185745,2024-09-18 17h08.17.505768 +0200,
11,-0.3,0.05,0,5,5,2,,,,,,,,,,,,,,,,,,,,,,,,,,,,,,,,,,,,,,,,,,,,,,,,,,,,,,,,,,,,,17.428720699972473,,,,,,,,,,,,,,,,17.304929699981585,17.309243299998343,None,,,,,,,,,,,,,,,,,,,,,,,,,,,,,,,,,,,,,,,,,,,,,,,,,,,,,,,,,,,,,,,,,,,,,,,,,,,,,897199,842523,Hombre,2024-09-18_17h07.48.752,tarea_iceberg,2023.2.3,59.73876239185745,2024-09-18 17h08.17.505768 +0200,
15,0.6,0.05,0,6,6,6,,,,,,,,,,,,,,,,,,,,,,,,,,,,,,,,,,,,,,,,,,,,,,,,,,,,,,,,,,,,,17.428720699972473,,,,,,,,,,,,,,,,17.309459500014782,17.313501200056635,None,,,,,,,,,,,,,,,,,,,,,,,,,,,,,,,,,,,,,,,,,,,,,,,,,,,,,,,,,,,,,,,,,,,,,,,,,,,,,897199,842523,Hombre,2024-09-18_17h07.48.752,tarea_iceberg,2023.2.3,59.73876239185745,2024-09-18 17h08.17.505768 +0200,
6,0,0.05,0,7,7,0,,,,,,,,,,,,,,,,,,,,,,,,,,,,,,,,,,,,,,,,,,,,,,,,,,,,,,,,,,,,,17.428720699972473,,,,,,,,,,,,,,,,17.31368839996867,17.317923299968243,None,,,,,,,,,,,,,,,,,,,,,,,,,,,,,,,,,,,,,,,,,,,,,,,,,,,,,,,,,,,,,,,,,,,,,,,,,,,,,897199,842523,Hombre,2024-09-18_17h07.48.752,tarea_iceberg,2023.2.3,59.73876239185745,2024-09-18 17h08.17.505768 +0200,
9,0.1,0.05,,,,,0,0,0,5,,,,,,,,,,,,,,,,,,,,,,,,,,,,,,,,,,,,,,,,,,,,,,,,,,,,,,,,,17.428720699972473,,,,,,,,,,,,,,,,,,,17.330690899980254,17.3354079000419,None,,,,,,,,,,,,,,,,,,,,,,,,,,,,,,,,,,,,,,,,,,,,,,,,,,,,,,,,,,,,,,,,,,,,,,,,,,897199,842523,Hombre,2024-09-18_17h07.48.752,tarea_iceberg,2023.2.3,59.73876239185745,2024-09-18 17h08.17.505768 +0200,
8,0.1,0.05,,,,,0,1,1,1,,,,,,,,,,,,,,,,,,,,,,,,,,,,,,,,,,,,,,,,,,,,,,,,,,,,,,,,,17.428720699972473,,,,,,,,,,,,,,,,,,,17.335659299977124,17.340581299969926,None,,,,,,,,,,,,,,,,,,,,,,,,,,,,,,,,,,,,,,,,,,,,,,,,,,,,,,,,,,,,,,,,,,,,,,,,,,897199,842523,Hombre,2024-09-18_17h07.48.752,tarea_iceberg,2023.2.3,59.73876239185745,2024-09-18 17h08.17.505768 +0200,
13,0.3,0.05,,,,,0,2,2,3,,,,,,,,,,,,,,,,,,,,,,,,,,,,,,,,,,,,,,,,,,,,,,,,,,,,,,,,,17.428720699972473,,,,,,,,,,,,,,,,,,,17.34079909999855,17.34557450003922,None,,,,,,,,,,,,,,,,,,,,,,,,,,,,,,,,,,,,,,,,,,,,,,,,,,,,,,,,,,,,,,,,,,,,,,,,,,897199,842523,Hombre,2024-09-18_17h07.48.752,tarea_iceberg,2023.2.3,59.73876239185745,2024-09-18 17h08.17.505768 +0200,
11,-0.3,0.05,,,,,0,3,3,2,,,,,,,,,,,,,,,,,,,,,,,,,,,,,,,,,,,,,,,,,,,,,,,,,,,,,,,,,17.428720699972473,,,,,,,,,,,,,,,,,,,17.345779599971138,17.35009910003282,None,,,,,,,,,,,,,,,,,,,,,,,,,,,,,,,,,,,,,,,,,,,,,,,,,,,,,,,,,,,,,,,,,,,,,,,,,,897199,842523,Hombre,2024-09-18_17h07.48.752,tarea_iceberg,2023.2.3,59.73876239185745,2024-09-18 17h08.17.505768 +0200,
15,0.6,0.05,,,,,0,4,4,6,,,,,,,,,,,,,,,,,,,,,,,,,,,,,,,,,,,,,,,,,,,,,,,,,,,,,,,,,17.428720699972473,,,,,,,,,,,,,,,,,,,17.35028500005137,17.354387799976394,None,,,,,,,,,,,,,,,,,,,,,,,,,,,,,,,,,,,,,,,,,,,,,,,,,,,,,,,,,,,,,,,,,,,,,,,,,,897199,842523,Hombre,2024-09-18_17h07.48.752,tarea_iceberg,2023.2.3,59.73876239185745,2024-09-18 17h08.17.505768 +0200,
15,0.5,0.05,,,,,0,5,5,7,,,,,,,,,,,,,,,,,,,,,,,,,,,,,,,,,,,,,,,,,,,,,,,,,,,,,,,,,17.428720699972473,,,,,,,,,,,,,,,,,,,17.354594300035387,17.35891690000426,None,,,,,,,,,,,,,,,,,,,,,,,,,,,,,,,,,,,,,,,,,,,,,,,,,,,,,,,,,,,,,,,,,,,,,,,,,,897199,842523,Hombre,2024-09-18_17h07.48.752,tarea_iceberg,2023.2.3,59.73876239185745,2024-09-18 17h08.17.505768 +0200,
6,0,0.05,,,,,0,6,6,0,,,,,,,,,,,,,,,,,,,,,,,,,,,,,,,,,,,,,,,,,,,,,,,,,,,,,,,,,17.428720699972473,,,,,,,,,,,,,,,,,,,17.35909589997027,17.363291200017557,None,,,,,,,,,,,,,,,,,,,,,,,,,,,,,,,,,,,,,,,,,,,,,,,,,,,,,,,,,,,,,,,,,,,,,,,,,,897199,842523,Hombre,2024-09-18_17h07.48.752,tarea_iceberg,2023.2.3,59.73876239185745,2024-09-18 17h08.17.505768 +0200,
5,0.5,0.05,,,,,0,7,7,4,,,,,,,,,,,,,,,,,,,,,,,,,,,,,,,,,,,,,,,,,,,,,,,,,,,,,,,,,17.428720699972473,,,,,,,,,,,,,,,,,,,17.363516099983826,17.367568299989216,None,,,,,,,,,,,,,,,,,,,,,,,,,,,,,,,,,,,,,,,,,,,,,,,,,,,,,,,,,,,,,,,,,,,,,,,,,,897199,842523,Hombre,2024-09-18_17h07.48.752,tarea_iceberg,2023.2.3,59.73876239185745,2024-09-18 17h08.17.505768 +0200,
6,0,0.05,,,,,,,,,0,0,0,0,,,,,,,,,,,,,,,,,,,,,,,,,,,,,,,,,,,,,,,,,,,,,,,,,,,,,17.428720699972473,,,,,,,,,,,,,,,,,,,,,,17.402904100017622,23.3980119000189,23.3980119000189,23.77340569999069,space,0.3556556000839919,None,,,,,,,,,,,,,,,,,,,,,,,,,,,,,,,,,,,,,,,,,,,,,,,,,,,,,,,,,,,,,,,,,,,897199,842523,Hombre,2024-09-18_17h07.48.752,tarea_iceberg,2023.2.3,59.73876239185745,2024-09-18 17h08.17.505768 +0200,
11,-0.3,0.05,,,,,,,,,0,1,1,2,,,,,,,,,,,,,,,,,,,,,,,,,,,,,,,,,,,,,,,,,,,,,,,,,,,,,23.791532700066455,,,,,,,,,,,,,,,,,,,,,,23.773993600043468,34.778233500081114,34.778233500081114,35.106249800068326,space,0.3180922999745235,None,,,,,,,,,,,,,,,,,,,,,,,,,,,,,,,,,,,,,,,,,,,,,,,,,,,,,,,,,,,,,,,,,,,897199,842523,Hombre,2024-09-18_17h07.48.752,tarea_iceberg,2023.2.3,59.73876239185745,2024-09-18 17h08.17.505768 +0200,
8,0.1,0.05,,,,,,,,,0,2,2,1,,,,,,,,,,,,,,,,,,,,,,,,,,,,,,,,,,,,,,,,,,,,,,,,,,,,,35.12334529997315,,,,,,,,,,,,,,,,,,,,,,35.10686900001019,43.11872620007489,43.11872620007489,43.588678600033745,space,0.4663021999876946,None,,,,,,,,,,,,,,,,,,,,,,,,,,,,,,,,,,,,,,,,,,,,,,,,,,,,,,,,,,,,,,,,,,,897199,842523,Hombre,2024-09-18_17h07.48.752,tarea_iceberg,2023.2.3,59.73876239185745,2024-09-18 17h08.17.505768 +0200,
5,0.5,0.05,,,,,,,,,0,3,3,4,,,,,,,,,,,,,,,,,,,,,,,,,,,,,,,,,,,,,,,,,,,,,,,,,,,,,43.60395590006374,,,,,,,,,,,,,,,,,,,,,,43.58895470004063,48.59136209997814,48.59136209997814,49.18173189996742,space,0.5775662999367341,None,,,,,,,,,,,,,,,,,,,,,,,,,,,,,,,,,,,,,,,,,,,,,,,,,,,,,,,,,,,,,,,,,,,897199,842523,Hombre,2024-09-18_17h07.48.752,tarea_iceberg,2023.2.3,59.73876239185745,2024-09-18 17h08.17.505768 +0200,
15,0.5,0.05,,,,,,,,,0,4,4,7,,,,,,,,,,,,,,,,,,,,,,,,,,,,,,,,,,,,,,,,,,,,,,,,,,,,,49.198136100079864,,,,,,,,,,,,,,,,,,,,,,49.18223290005699,64.18985860003158,64.18985860003158,64.54873789998237,space,0.3543240000726655,None,,,,,,,,,,,,,,,,,,,,,,,,,,,,,,,,,,,,,,,,,,,,,,,,,,,,,,,,,,,,,,,,,,,897199,842523,Hombre,2024-09-18_17h07.48.752,tarea_iceberg,2023.2.3,59.73876239185745,2024-09-18 17h08.17.505768 +0200,
15,0.6,0.05,,,,,,,,,0,5,5,6,,,,,,,,,,,,,,,,,,,,,,,,,,,,,,,,,,,,,,,,,,,,,,,,,,,,,64.5651693000691,,,,,,,,,,,,,,,,,,,,,,64.5493161000777,79.55498290003743,79.55498290003743,79.97871890000533,space,0.4210125000681728,None,,,,,,,,,,,,,,,,,,,,,,,,,,,,,,,,,,,,,,,,,,,,,,,,,,,,,,,,,,,,,,,,,,,897199,842523,Hombre,2024-09-18_17h07.48.752,tarea_iceberg,2023.2.3,59.73876239185745,2024-09-18 17h08.17.505768 +0200,
13,0.3,0.05,,,,,,,,,0,6,6,3,,,,,,,,,,,,,,,,,,,,,,,,,,,,,,,,,,,,,,,,,,,,,,,,,,,,,79.99533100007102,,,,,,,,,,,,,,,,,,,,,,79.9792173000751,92.98547159996815,92.98547159996815,93.34334829996806,space,0.35058379999827594,None,,,,,,,,,,,,,,,,,,,,,,,,,,,,,,,,,,,,,,,,,,,,,,,,,,,,,,,,,,,,,,,,,,,897199,842523,Hombre,2024-09-18_17h07.48.752,tarea_iceberg,2023.2.3,59.73876239185745,2024-09-18 17h08.17.505768 +0200,
9,0.1,0.05,,,,,,,,,0,7,7,5,,,,,,,,,,,,,,,,,,,,,,,,,,,,,,,,,,,,,,,,,,,,,,,,,,,,,93.35989590000827,,,,,,,,,,,,,,,,,,,,,,93.34385850001127,102.34432729997206,102.34432729997206,102.71304170007352,space,0.35906160005833954,None,,,,,,,,,,,,,,,,,,,,,,,,,,,,,,,,,,,,,,,,,,,,,,,,,,,,,,,,,,,,,,,,,,,897199,842523,Hombre,2024-09-18_17h07.48.752,tarea_iceberg,2023.2.3,59.73876239185745,2024-09-18 17h08.17.505768 +0200,
15,0.5,0.05,,,,,,,,,,,,,0,0,0,7,,,,,,,,,,,,,,,,,,,,,,,,,,,,,,,,,,,,,,,,,,,,,,,,,102.83982300001662,,,,,,,,,,,,,,,,,,,,,,,,,,,,,102.75382700003684,102.75955100008287,None,,,,,,,,,,,,,,,,,,,,,,,,,,,,,,,,,,,,,,,,,,,,,,,,,,,,,,,,,,,,,,,,897199,842523,Hombre,2024-09-18_17h07.48.752,tarea_iceberg,2023.2.3,59.73876239185745,2024-09-18 17h08.17.505768 +0200,
6,0,0.05,,,,,,,,,,,,,0,1,1,0,,,,,,,,,,,,,,,,,,,,,,,,,,,,,,,,,,,,,,,,,,,,,,,,,102.83982300001662,,,,,,,,,,,,,,,,,,,,,,,,,,,,,102.75978540000506,102.76377239997964,None,,,,,,,,,,,,,,,,,,,,,,,,,,,,,,,,,,,,,,,,,,,,,,,,,,,,,,,,,,,,,,,,897199,842523,Hombre,2024-09-18_17h07.48.752,tarea_iceberg,2023.2.3,59.73876239185745,2024-09-18 17h08.17.505768 +0200,
9,0.1,0.05,,,,,,,,,,,,,0,2,2,5,,,,,,,,,,,,,,,,,,,,,,,,,,,,,,,,,,,,,,,,,,,,,,,,,102.83982300001662,,,,,,,,,,,,,,,,,,,,,,,,,,,,,102.76395849999972,102.76793500001077,None,,,,,,,,,,,,,,,,,,,,,,,,,,,,,,,,,,,,,,,,,,,,,,,,,,,,,,,,,,,,,,,,897199,842523,Hombre,2024-09-18_17h07.48.752,tarea_iceberg,2023.2.3,59.73876239185745,2024-09-18 17h08.17.505768 +0200,
11,-0.3,0.05,,,,,,,,,,,,,0,3,3,2,,,,,,,,,,,,,,,,,,,,,,,,,,,,,,,,,,,,,,,,,,,,,,,,,102.83982300001662,,,,,,,,,,,,,,,,,,,,,,,,,,,,,102.76810330001172,102.77208240004256,None,,,,,,,,,,,,,,,,,,,,,,,,,,,,,,,,,,,,,,,,,,,,,,,,,,,,,,,,,,,,,,,,897199,842523,Hombre,2024-09-18_17h07.48.752,tarea_iceberg,2023.2.3,59.73876239185745,2024-09-18 17h08.17.505768 +0200,
15,0.6,0.05,,,,,,,,,,,,,0,4,4,6,,,,,,,,,,,,,,,,,,,,,,,,,,,,,,,,,,,,,,,,,,,,,,,,,102.83982300001662,,,,,,,,,,,,,,,,,,,,,,,,,,,,,102.77225350006483,102.77645070001017,None,,,,,,,,,,,,,,,,,,,,,,,,,,,,,,,,,,,,,,,,,,,,,,,,,,,,,,,,,,,,,,,,897199,842523,Hombre,2024-09-18_17h07.48.752,tarea_iceberg,2023.2.3,59.73876239185745,2024-09-18 17h08.17.505768 +0200,
5,0.5,0.05,,,,,,,,,,,,,0,5,5,4,,,,,,,,,,,,,,,,,,,,,,,,,,,,,,,,,,,,,,,,,,,,,,,,,102.83982300001662,,,,,,,,,,,,,,,,,,,,,,,,,,,,,102.77662889997009,102.78048610000405,None,,,,,,,,,,,,,,,,,,,,,,,,,,,,,,,,,,,,,,,,,,,,,,,,,,,,,,,,,,,,,,,,897199,842523,Hombre,2024-09-18_17h07.48.752,tarea_iceberg,2023.2.3,59.73876239185745,2024-09-18 17h08.17.505768 +0200,
13,0.3,0.05,,,,,,,,,,,,,0,6,6,3,,,,,,,,,,,,,,,,,,,,,,,,,,,,,,,,,,,,,,,,,,,,,,,,,102.83982300001662,,,,,,,,,,,,,,,,,,,,,,,,,,,,,102.78065169998445,102.78444249997847,None,,,,,,,,,,,,,,,,,,,,,,,,,,,,,,,,,,,,,,,,,,,,,,,,,,,,,,,,,,,,,,,,897199,842523,Hombre,2024-09-18_17h07.48.752,tarea_iceberg,2023.2.3,59.73876239185745,2024-09-18 17h08.17.505768 +0200,
8,0.1,0.05,,,,,,,,,,,,,0,7,7,1,,,,,,,,,,,,,,,,,,,,,,,,,,,,,,,,,,,,,,,,,,,,,,,,,102.83982300001662,,,,,,,,,,,,,,,,,,,,,,,,,,,,,102.78460870007984,102.78849429998081,None,,,,,,,,,,,,,,,,,,,,,,,,,,,,,,,,,,,,,,,,,,,,,,,,,,,,,,,,,,,,,,,,897199,842523,Hombre,2024-09-18_17h07.48.752,tarea_iceberg,2023.2.3,59.73876239185745,2024-09-18 17h08.17.505768 +0200,
4,-0.5,0.05,,,,,,,,,,,,,,,,,0,0,0,2,,,,,,,,,,,,,,,,,,,,,,,,,,,,,,,,,,,,,,,,,,,,,105.38067109999247,,,,,,,,,,,,,,,,,,,,,,,,,,,,,,,,102.82990670006257,102.83982300001662,105.38067109999247,104.82936259999406,104.84264140005689,108.8328271000646,108.8328271000646,109.24157279997598,space,0.3993907000403851,None,,,,,,,,,,,,,,,,,,,,,,,,,,,,,,,,,,,,,,,,,,,,,,,,,,,,,897199,842523,Hombre,2024-09-18_17h07.48.752,tarea_iceberg,2023.2.3,59.73876239185745,2024-09-18 17h08.17.505768 +0200,
6,-0.3,0.05,,,,,,,,,,,,,,,,,0,1,1,4,,,,,,,,,,,,,,,,,,,,,,,,,,,,,,,,,,,,,,,,,,,,,109.25781810004264,,,,,,,,,,,,,,,,,,,,,,,,,,,,,,,,,,,,109.24215890001506,115.25652190006804,115.25652190006804,115.74175280006602,space,0.4713666000170633,None,,,,,,,,,,,,,,,,,,,,,,,,,,,,,,,,,,,,,,,,,,,,,,,,,,,,,897199,842523,Hombre,2024-09-18_17h07.48.752,tarea_iceberg,2023.2.3,59.73876239185745,2024-09-18 17h08.17.505768 +0200,
10,0.5,0.05,,,,,,,,,,,,,,,,,0,2,2,6,,,,,,,,,,,,,,,,,,,,,,,,,,,,,,,,,,,,,,,,,,,,,115.75684819999151,,,,,,,,,,,,,,,,,,,,,,,,,,,,,,,,,,,,115.74201729998458,125.75071880000178,125.75071880000178,126.27469170000404,space,0.5053010999690741,None,,,,,,,,,,,,,,,,,,,,,,,,,,,,,,,,,,,,,,,,,,,,,,,,,,,,,897199,842523,Hombre,2024-09-18_17h07.48.752,tarea_iceberg,2023.2.3,59.73876239185745,2024-09-18 17h08.17.505768 +0200,
3,0,0.05,,,,,,,,,,,,,,,,,0,3,3,5,,,,,,,,,,,,,,,,,,,,,,,,,,,,,,,,,,,,,,,,,,,,,126.29087909997907,,,,,,,,,,,,,,,,,,,,,,,,,,,,,,,,,,,,126.27514130005147,129.2876323000528,129.2876323000528,129.61162480001803,space,0.31274199998006225,None,,,,,,,,,,,,,,,,,,,,,,,,,,,,,,,,,,,,,,,,,,,,,,,,,,,,,897199,842523,Hombre,2024-09-18_17h07.48.752,tarea_iceberg,2023.2.3,59.73876239185745,2024-09-18 17h08.17.505768 +0200,
11,-0.4,0.05,,,,,,,,,,,,,,,,,0,4,4,0,,,,,,,,,,,,,,,,,,,,,,,,,,,,,,,,,,,,,,,,,,,,,129.62782469997182,,,,,,,,,,,,,,,,,,,,,,,,,,,,,,,,,,,,129.61206610000227,140.6155314000789,140.6155314000789,140.97363540006336,space,0.3358732999768108,None,,,,,,,,,,,,,,,,,,,,,,,,,,,,,,,,,,,,,,,,,,,,,,,,,,,,,897199,842523,Hombre,2024-09-18_17h07.48.752,tarea_iceberg,2023.2.3,59.73876239185745,2024-09-18 17h08.17.505768 +0200,
8,-0.3,0.05,,,,,,,,,,,,,,,,,0,5,5,3,,,,,,,,,,,,,,,,,,,,,,,,,,,,,,,,,,,,,,,,,,,,,140.98961819999386,,,,,,,,,,,,,,,,,,,,,,,,,,,,,,,,,,,,140.9740856999997,148.98946379998233,148.98946379998233,149.31435420003254,space,0.31528940005227923,None,,,,,,,,,,,,,,,,,,,,,,,,,,,,,,,,,,,,,,,,,,,,,,,,,,,,,897199,842523,Hombre,2024-09-18_17h07.48.752,tarea_iceberg,2023.2.3,59.73876239185745,2024-09-18 17h08.17.505768 +0200,
9,0.2,0.05,,,,,,,,,,,,,,,,,0,6,6,7,,,,,,,,,,,,,,,,,,,,,,,,,,,,,,,,,,,,,,,,,,,,,149.33091430005152,,,,,,,,,,,,,,,,,,,,,,,,,,,,,,,,,,,,149.31480310007464,158.31533110002056,158.31533110002056,158.63913160003722,space,0.30095710000023246,None,,,,,,,,,,,,,,,,,,,,,,,,,,,,,,,,,,,,,,,,,,,,,,,,,,,,,897199,842523,Hombre,2024-09-18_17h07.48.752,tarea_iceberg,2023.2.3,59.73876239185745,2024-09-18 17h08.17.505768 +0200,
8,-0.2,0.05,,,,,,,,,,,,,,,,,0,7,7,1,,,,,,,,,,,,,,,,,,,,,,,,,,,,,,,,,,,,,,,,,,,,,158.65520609996747,,,,,,,,,,,,,,,,,,,,,,,,,,,,,,,,,,,,158.63944459997583,166.6397016000701,166.6397016000701,166.98227629996836,space,0.3205073999706656,None,,,,,,,,,,,,,,,,,,,,,,,,,,,,,,,,,,,,,,,,,,,,,,,,,,,,,897199,842523,Hombre,2024-09-18_17h07.48.752,tarea_iceberg,2023.2.3,59.73876239185745,2024-09-18 17h08.17.505768 +0200,
8,-0.2,0.05,,,,,,,,,,,,,,,,,,,,,0,0,0,1,,,,,,,,,,,,,,,,,,,,,,,,,,,,,,,,,,,,,,,,,167.24194880004507,,,,,,,,,,,,,,,,,,,,,,,,,,,,,,,,,,,,,,,,,,,166.99886330007575,167.00423189997673,None,,,,,,,,,,,,,,,,,,,,,,,,,,,,,,,,,,,,,,,,,,,,,,,,,,897199,842523,Hombre,2024-09-18_17h07.48.752,tarea_iceberg,2023.2.3,59.73876239185745,2024-09-18 17h08.17.505768 +0200,
11,-0.4,0.05,,,,,,,,,,,,,,,,,,,,,0,1,1,0,,,,,,,,,,,,,,,,,,,,,,,,,,,,,,,,,,,,,,,,,167.24194880004507,,,,,,,,,,,,,,,,,,,,,,,,,,,,,,,,,,,,,,,,,,,167.00450050004292,167.00858360005077,None,,,,,,,,,,,,,,,,,,,,,,,,,,,,,,,,,,,,,,,,,,,,,,,,,,897199,842523,Hombre,2024-09-18_17h07.48.752,tarea_iceberg,2023.2.3,59.73876239185745,2024-09-18 17h08.17.505768 +0200,
9,0.2,0.05,,,,,,,,,,,,,,,,,,,,,0,2,2,7,,,,,,,,,,,,,,,,,,,,,,,,,,,,,,,,,,,,,,,,,167.24194880004507,,,,,,,,,,,,,,,,,,,,,,,,,,,,,,,,,,,,,,,,,,,167.00875310006086,167.01260850008111,None,,,,,,,,,,,,,,,,,,,,,,,,,,,,,,,,,,,,,,,,,,,,,,,,,,897199,842523,Hombre,2024-09-18_17h07.48.752,tarea_iceberg,2023.2.3,59.73876239185745,2024-09-18 17h08.17.505768 +0200,
10,0.5,0.05,,,,,,,,,,,,,,,,,,,,,0,3,3,6,,,,,,,,,,,,,,,,,,,,,,,,,,,,,,,,,,,,,,,,,167.24194880004507,,,,,,,,,,,,,,,,,,,,,,,,,,,,,,,,,,,,,,,,,,,167.01277600007597,167.01670170004945,None,,,,,,,,,,,,,,,,,,,,,,,,,,,,,,,,,,,,,,,,,,,,,,,,,,897199,842523,Hombre,2024-09-18_17h07.48.752,tarea_iceberg,2023.2.3,59.73876239185745,2024-09-18 17h08.17.505768 +0200,
6,-0.3,0.05,,,,,,,,,,,,,,,,,,,,,0,4,4,4,,,,,,,,,,,,,,,,,,,,,,,,,,,,,,,,,,,,,,,,,167.24194880004507,,,,,,,,,,,,,,,,,,,,,,,,,,,,,,,,,,,,,,,,,,,167.01690559997223,167.02094800001942,None,,,,,,,,,,,,,,,,,,,,,,,,,,,,,,,,,,,,,,,,,,,,,,,,,,897199,842523,Hombre,2024-09-18_17h07.48.752,tarea_iceberg,2023.2.3,59.73876239185745,2024-09-18 17h08.17.505768 +0200,
4,-0.5,0.05,,,,,,,,,,,,,,,,,,,,,0,5,5,2,,,,,,,,,,,,,,,,,,,,,,,,,,,,,,,,,,,,,,,,,167.24194880004507,,,,,,,,,,,,,,,,,,,,,,,,,,,,,,,,,,,,,,,,,,,167.02114590001293,167.02508699998725,None,,,,,,,,,,,,,,,,,,,,,,,,,,,,,,,,,,,,,,,,,,,,,,,,,,897199,842523,Hombre,2024-09-18_17h07.48.752,tarea_iceberg,2023.2.3,59.73876239185745,2024-09-18 17h08.17.505768 +0200,
8,-0.3,0.05,,,,,,,,,,,,,,,,,,,,,0,6,6,3,,,,,,,,,,,,,,,,,,,,,,,,,,,,,,,,,,,,,,,,,167.24194880004507,,,,,,,,,,,,,,,,,,,,,,,,,,,,,,,,,,,,,,,,,,,167.02524790004827,167.02913100004662,None,,,,,,,,,,,,,,,,,,,,,,,,,,,,,,,,,,,,,,,,,,,,,,,,,,897199,842523,Hombre,2024-09-18_17h07.48.752,tarea_iceberg,2023.2.3,59.73876239185745,2024-09-18 17h08.17.505768 +0200,
3,0,0.05,,,,,,,,,,,,,,,,,,,,,0,7,7,5,,,,,,,,,,,,,,,,,,,,,,,,,,,,,,,,,,,,,,,,,167.24194880004507,,,,,,,,,,,,,,,,,,,,,,,,,,,,,,,,,,,,,,,,,,,167.0293129000347,167.03318050003145,None,,,,,,,,,,,,,,,,,,,,,,,,,,,,,,,,,,,,,,,,,,,,,,,,,,897199,842523,Hombre,2024-09-18_17h07.48.752,tarea_iceberg,2023.2.3,59.73876239185745,2024-09-18 17h08.17.505768 +0200,
3,0,0.05,,,,,,,,,,,,,,,,,,,,,,,,,0,0,0,5,,,,,,,,,,,,,,,,,,,,,,,,,,,,,,,,,,,,,167.24194880004507,,,,,,,,,,,,,,,,,,,,,,,,,,,,,,,,,,,,,,,,,,,,,,167.0719647000078,167.0766401999863,None,,,,,,,,,,,,,,,,,,,,,,,,,,,,,,,,,,,,,,,,,,,,,,,897199,842523,Hombre,2024-09-18_17h07.48.752,tarea_iceberg,2023.2.3,59.73876239185745,2024-09-18 17h08.17.505768 +0200,
8,-0.3,0.05,,,,,,,,,,,,,,,,,,,,,,,,,0,1,1,3,,,,,,,,,,,,,,,,,,,,,,,,,,,,,,,,,,,,,167.24194880004507,,,,,,,,,,,,,,,,,,,,,,,,,,,,,,,,,,,,,,,,,,,,,,167.07688120007515,167.0810123999836,None,,,,,,,,,,,,,,,,,,,,,,,,,,,,,,,,,,,,,,,,,,,,,,,897199,842523,Hombre,2024-09-18_17h07.48.752,tarea_iceberg,2023.2.3,59.73876239185745,2024-09-18 17h08.17.505768 +0200,
8,-0.2,0.05,,,,,,,,,,,,,,,,,,,,,,,,,0,2,2,1,,,,,,,,,,,,,,,,,,,,,,,,,,,,,,,,,,,,,167.24194880004507,,,,,,,,,,,,,,,,,,,,,,,,,,,,,,,,,,,,,,,,,,,,,,167.08118760003708,167.08566590002738,None,,,,,,,,,,,,,,,,,,,,,,,,,,,,,,,,,,,,,,,,,,,,,,,897199,842523,Hombre,2024-09-18_17h07.48.752,tarea_iceberg,2023.2.3,59.73876239185745,2024-09-18 17h08.17.505768 +0200,
4,-0.5,0.05,,,,,,,,,,,,,,,,,,,,,,,,,0,3,3,2,,,,,,,,,,,,,,,,,,,,,,,,,,,,,,,,,,,,,167.24194880004507,,,,,,,,,,,,,,,,,,,,,,,,,,,,,,,,,,,,,,,,,,,,,,167.08585040003527,167.09031580004375,None,,,,,,,,,,,,,,,,,,,,,,,,,,,,,,,,,,,,,,,,,,,,,,,897199,842523,Hombre,2024-09-18_17h07.48.752,tarea_iceberg,2023.2.3,59.73876239185745,2024-09-18 17h08.17.505768 +0200,
6,-0.3,0.05,,,,,,,,,,,,,,,,,,,,,,,,,0,4,4,4,,,,,,,,,,,,,,,,,,,,,,,,,,,,,,,,,,,,,167.24194880004507,,,,,,,,,,,,,,,,,,,,,,,,,,,,,,,,,,,,,,,,,,,,,,167.09052950004116,167.09455090004485,None,,,,,,,,,,,,,,,,,,,,,,,,,,,,,,,,,,,,,,,,,,,,,,,897199,842523,Hombre,2024-09-18_17h07.48.752,tarea_iceberg,2023.2.3,59.73876239185745,2024-09-18 17h08.17.505768 +0200,
11,-0.4,0.05,,,,,,,,,,,,,,,,,,,,,,,,,0,5,5,0,,,,,,,,,,,,,,,,,,,,,,,,,,,,,,,,,,,,,167.24194880004507,,,,,,,,,,,,,,,,,,,,,,,,,,,,,,,,,,,,,,,,,,,,,,167.09476640005596,167.09871220006607,None,,,,,,,,,,,,,,,,,,,,,,,,,,,,,,,,,,,,,,,,,,,,,,,897199,842523,Hombre,2024-09-18_17h07.48.752,tarea_iceberg,2023.2.3,59.73876239185745,2024-09-18 17h08.17.505768 +0200,
10,0.5,0.05,,,,,,,,,,,,,,,,,,,,,,,,,0,6,6,6,,,,,,,,,,,,,,,,,,,,,,,,,,,,,,,,,,,,,167.24194880004507,,,,,,,,,,,,,,,,,,,,,,,,,,,,,,,,,,,,,,,,,,,,,,167.09888890001457,167.10278900002595,None,,,,,,,,,,,,,,,,,,,,,,,,,,,,,,,,,,,,,,,,,,,,,,,897199,842523,Hombre,2024-09-18_17h07.48.752,tarea_iceberg,2023.2.3,59.73876239185745,2024-09-18 17h08.17.505768 +0200,
9,0.2,0.05,,,,,,,,,,,,,,,,,,,,,,,,,0,7,7,7,,,,,,,,,,,,,,,,,,,,,,,,,,,,,,,,,,,,,167.24194880004507,,,,,,,,,,,,,,,,,,,,,,,,,,,,,,,,,,,,,,,,,,,,,,167.10296950000338,167.10707859997638,None,,,,,,,,,,,,,,,,,,,,,,,,,,,,,,,,,,,,,,,,,,,,,,,897199,842523,Hombre,2024-09-18_17h07.48.752,tarea_iceberg,2023.2.3,59.73876239185745,2024-09-18 17h08.17.505768 +0200,
8,-0.2,0.05,,,,,,,,,,,,,,,,,,,,,,,,,,,,,0,0,0,1,,,,,,,,,,,,,,,,,,,,,,,,,,,,,,,,,167.24194880004507,,,,,,,,,,,,,,,,,,,,,,,,,,,,,,,,,,,,,,,,,,,,,,,,,167.14205360005144,167.14764109998941,None,,,,,,,,,,,,,,,,,,,,,,,,,,,,,,,,,,,,,,,,,,,,897199,842523,Hombre,2024-09-18_17h07.48.752,tarea_iceberg,2023.2.3,59.73876239185745,2024-09-18 17h08.17.505768 +0200,
8,-0.3,0.05,,,,,,,,,,,,,,,,,,,,,,,,,,,,,0,1,1,3,,,,,,,,,,,,,,,,,,,,,,,,,,,,,,,,,167.24194880004507,,,,,,,,,,,,,,,,,,,,,,,,,,,,,,,,,,,,,,,,,,,,,,,,,167.14795850007795,167.15198059997056,None,,,,,,,,,,,,,,,,,,,,,,,,,,,,,,,,,,,,,,,,,,,,897199,842523,Hombre,2024-09-18_17h07.48.752,tarea_iceberg,2023.2.3,59.73876239185745,2024-09-18 17h08.17.505768 +0200,
3,0,0.05,,,,,,,,,,,,,,,,,,,,,,,,,,,,,0,2,2,5,,,,,,,,,,,,,,,,,,,,,,,,,,,,,,,,,167.24194880004507,,,,,,,,,,,,,,,,,,,,,,,,,,,,,,,,,,,,,,,,,,,,,,,,,167.15215940005146,167.15631059999578,None,,,,,,,,,,,,,,,,,,,,,,,,,,,,,,,,,,,,,,,,,,,,897199,842523,Hombre,2024-09-18_17h07.48.752,tarea_iceberg,2023.2.3,59.73876239185745,2024-09-18 17h08.17.505768 +0200,
4,-0.5,0.05,,,,,,,,,,,,,,,,,,,,,,,,,,,,,0,3,3,2,,,,,,,,,,,,,,,,,,,,,,,,,,,,,,,,,167.24194880004507,,,,,,,,,,,,,,,,,,,,,,,,,,,,,,,,,,,,,,,,,,,,,,,,,167.1564944999991,167.16049769998062,None,,,,,,,,,,,,,,,,,,,,,,,,,,,,,,,,,,,,,,,,,,,,897199,842523,Hombre,2024-09-18_17h07.48.752,tarea_iceberg,2023.2.3,59.73876239185745,2024-09-18 17h08.17.505768 +0200,
10,0.5,0.05,,,,,,,,,,,,,,,,,,,,,,,,,,,,,0,4,4,6,,,,,,,,,,,,,,,,,,,,,,,,,,,,,,,,,167.24194880004507,,,,,,,,,,,,,,,,,,,,,,,,,,,,,,,,,,,,,,,,,,,,,,,,,167.1606701000128,167.16462639998645,None,,,,,,,,,,,,,,,,,,,,,,,,,,,,,,,,,,,,,,,,,,,,897199,842523,Hombre,2024-09-18_17h07.48.752,tarea_iceberg,2023.2.3,59.73876239185745,2024-09-18 17h08.17.505768 +0200,
6,-0.3,0.05,,,,,,,,,,,,,,,,,,,,,,,,,,,,,0,5,5,4,,,,,,,,,,,,,,,,,,,,,,,,,,,,,,,,,167.24194880004507,,,,,,,,,,,,,,,,,,,,,,,,,,,,,,,,,,,,,,,,,,,,,,,,,167.16483050002716,167.1687649000669,None,,,,,,,,,,,,,,,,,,,,,,,,,,,,,,,,,,,,,,,,,,,,897199,842523,Hombre,2024-09-18_17h07.48.752,tarea_iceberg,2023.2.3,59.73876239185745,2024-09-18 17h08.17.505768 +0200,
9,0.2,0.05,,,,,,,,,,,,,,,,,,,,,,,,,,,,,0,6,6,7,,,,,,,,,,,,,,,,,,,,,,,,,,,,,,,,,167.24194880004507,,,,,,,,,,,,,,,,,,,,,,,,,,,,,,,,,,,,,,,,,,,,,,,,,167.16898509999737,167.17305750004016,None,,,,,,,,,,,,,,,,,,,,,,,,,,,,,,,,,,,,,,,,,,,,897199,842523,Hombre,2024-09-18_17h07.48.752,tarea_iceberg,2023.2.3,59.73876239185745,2024-09-18 17h08.17.505768 +0200,
11,-0.4,0.05,,,,,,,,,,,,,,,,,,,,,,,,,,,,,0,7,7,0,,,,,,,,,,,,,,,,,,,,,,,,,,,,,,,,,167.24194880004507,,,,,,,,,,,,,,,,,,,,,,,,,,,,,,,,,,,,,,,,,,,,,,,,,167.17324620008003,167.1772864999948,None,,,,,,,,,,,,,,,,,,,,,,,,,,,,,,,,,,,,,,,,,,,,897199,842523,Hombre,2024-09-18_17h07.48.752,tarea_iceberg,2023.2.3,59.73876239185745,2024-09-18 17h08.17.505768 +0200,
11,-0.3,0.05,,,,,,,,,,,,,,,,,,,,,,,,,,,,,,,,,0,0,0,7,,,,,,,,,,,,,,,,,,,,,,,,,,,,,170.06329329998698,,,,,,,,,,,,,,,,,,,,,,,,,,,,,,,,,,,,,,,,,,,,,,,,,,,,167.22914080007467,167.24194880004507,170.06329329998698,169.22675600007642,169.24019689997658,169.24568150006235,None,,,,,,,,,,,,,,,,,,,,,,,,,,,,,,,,,,,,,897199,842523,Hombre,2024-09-18_17h07.48.752,tarea_iceberg,2023.2.3,59.73876239185745,2024-09-18 17h08.17.505768 +0200,
10,-0.7,0.05,,,,,,,,,,,,,,,,,,,,,,,,,,,,,,,,,0,1,1,0,,,,,,,,,,,,,,,,,,,,,,,,,,,,,170.06329329998698,,,,,,,,,,,,,,,,,,,,,,,,,,,,,,,,,,,,,,,,,,,,,,,,,,,,,,,,169.24592730007134,169.2497523999773,None,,,,,,,,,,,,,,,,,,,,,,,,,,,,,,,,,,,,,897199,842523,Hombre,2024-09-18_17h07.48.752,tarea_iceberg,2023.2.3,59.73876239185745,2024-09-18 17h08.17.505768 +0200,
4,-0.4,0.05,,,,,,,,,,,,,,,,,,,,,,,,,,,,,,,,,0,2,2,4,,,,,,,,,,,,,,,,,,,,,,,,,,,,,170.06329329998698,,,,,,,,,,,,,,,,,,,,,,,,,,,,,,,,,,,,,,,,,,,,,,,,,,,,,,,,169.2499252000125,169.2536460000556,None,,,,,,,,,,,,,,,,,,,,,,,,,,,,,,,,,,,,,897199,842523,Hombre,2024-09-18_17h07.48.752,tarea_iceberg,2023.2.3,59.73876239185745,2024-09-18 17h08.17.505768 +0200,
14,-0.6,0.05,,,,,,,,,,,,,,,,,,,,,,,,,,,,,,,,,0,3,3,2,,,,,,,,,,,,,,,,,,,,,,,,,,,,,170.06329329998698,,,,,,,,,,,,,,,,,,,,,,,,,,,,,,,,,,,,,,,,,,,,,,,,,,,,,,,,169.25381510006264,169.2575763000641,None,,,,,,,,,,,,,,,,,,,,,,,,,,,,,,,,,,,,,897199,842523,Hombre,2024-09-18_17h07.48.752,tarea_iceberg,2023.2.3,59.73876239185745,2024-09-18 17h08.17.505768 +0200,
8,-0.1,0.05,,,,,,,,,,,,,,,,,,,,,,,,,,,,,,,,,0,4,4,3,,,,,,,,,,,,,,,,,,,,,,,,,,,,,170.06329329998698,,,,,,,,,,,,,,,,,,,,,,,,,,,,,,,,,,,,,,,,,,,,,,,,,,,,,,,,169.25774410006125,169.26135919999797,None,,,,,,,,,,,,,,,,,,,,,,,,,,,,,,,,,,,,,897199,842523,Hombre,2024-09-18_17h07.48.752,tarea_iceberg,2023.2.3,59.73876239185745,2024-09-18 17h08.17.505768 +0200,
3,0.6,0.05,,,,,,,,,,,,,,,,,,,,,,,,,,,,,,,,,0,5,5,5,,,,,,,,,,,,,,,,,,,,,,,,,,,,,170.06329329998698,,,,,,,,,,,,,,,,,,,,,,,,,,,,,,,,,,,,,,,,,,,,,,,,,,,,,,,,169.26153060002252,169.26505799998995,None,,,,,,,,,,,,,,,,,,,,,,,,,,,,,,,,,,,,,897199,842523,Hombre,2024-09-18_17h07.48.752,tarea_iceberg,2023.2.3,59.73876239185745,2024-09-18 17h08.17.505768 +0200,
10,-0.3,0.05,,,,,,,,,,,,,,,,,,,,,,,,,,,,,,,,,0,6,6,1,,,,,,,,,,,,,,,,,,,,,,,,,,,,,170.06329329998698,,,,,,,,,,,,,,,,,,,,,,,,,,,,,,,,,,,,,,,,,,,,,,,,,,,,,,,,169.265239499975,169.26878270006273,None,,,,,,,,,,,,,,,,,,,,,,,,,,,,,,,,,,,,,897199,842523,Hombre,2024-09-18_17h07.48.752,tarea_iceberg,2023.2.3,59.73876239185745,2024-09-18 17h08.17.505768 +0200,
12,-0.1,0.05,,,,,,,,,,,,,,,,,,,,,,,,,,,,,,,,,0,7,7,6,,,,,,,,,,,,,,,,,,,,,,,,,,,,,170.06329329998698,,,,,,,,,,,,,,,,,,,,,,,,,,,,,,,,,,,,,,,,,,,,,,,,,,,,,,,,169.26893680007197,169.27252700005192,None,,,,,,,,,,,,,,,,,,,,,,,,,,,,,,,,,,,,,897199,842523,Hombre,2024-09-18_17h07.48.752,tarea_iceberg,2023.2.3,59.73876239185745,2024-09-18 17h08.17.505768 +0200,
12,-0.1,0.05,,,,,,,,,,,,,,,,,,,,,,,,,,,,,,,,,,,,,0,0,0,6,,,,,,,,,,,,,,,,,,,,,,,,,170.06329329998698,,,,,,,,,,,,,,,,,,,,,,,,,,,,,,,,,,,,,,,,,,,,,,,,,,,,,,,,,,,169.28513730003033,169.28932500001974,None,,,,,,,,,,,,,,,,,,,,,,,,,,,,,,,,,,897199,842523,Hombre,2024-09-18_17h07.48.752,tarea_iceberg,2023.2.3,59.73876239185745,2024-09-18 17h08.17.505768 +0200,
4,-0.4,0.05,,,,,,,,,,,,,,,,,,,,,,,,,,,,,,,,,,,,,0,1,1,4,,,,,,,,,,,,,,,,,,,,,,,,,170.06329329998698,,,,,,,,,,,,,,,,,,,,,,,,,,,,,,,,,,,,,,,,,,,,,,,,,,,,,,,,,,,169.289566499996,169.2933583999984,None,,,,,,,,,,,,,,,,,,,,,,,,,,,,,,,,,,897199,842523,Hombre,2024-09-18_17h07.48.752,tarea_iceberg,2023.2.3,59.73876239185745,2024-09-18 17h08.17.505768 +0200,
14,-0.6,0.05,,,,,,,,,,,,,,,,,,,,,,,,,,,,,,,,,,,,,0,2,2,2,,,,,,,,,,,,,,,,,,,,,,,,,170.06329329998698,,,,,,,,,,,,,,,,,,,,,,,,,,,,,,,,,,,,,,,,,,,,,,,,,,,,,,,,,,,169.29352780000772,169.29705390008166,None,,,,,,,,,,,,,,,,,,,,,,,,,,,,,,,,,,897199,842523,Hombre,2024-09-18_17h07.48.752,tarea_iceberg,2023.2.3,59.73876239185745,2024-09-18 17h08.17.505768 +0200,
10,-0.7,0.05,,,,,,,,,,,,,,,,,,,,,,,,,,,,,,,,,,,,,0,3,3,0,,,,,,,,,,,,,,,,,,,,,,,,,170.06329329998698,,,,,,,,,,,,,,,,,,,,,,,,,,,,,,,,,,,,,,,,,,,,,,,,,,,,,,,,,,,169.2972271000035,169.30078469996806,None,,,,,,,,,,,,,,,,,,,,,,,,,,,,,,,,,,897199,842523,Hombre,2024-09-18_17h07.48.752,tarea_iceberg,2023.2.3,59.73876239185745,2024-09-18 17h08.17.505768 +0200,
11,-0.3,0.05,,,,,,,,,,,,,,,,,,,,,,,,,,,,,,,,,,,,,0,4,4,7,,,,,,,,,,,,,,,,,,,,,,,,,170.06329329998698,,,,,,,,,,,,,,,,,,,,,,,,,,,,,,,,,,,,,,,,,,,,,,,,,,,,,,,,,,,169.30094560002908,169.30450680002104,None,,,,,,,,,,,,,,,,,,,,,,,,,,,,,,,,,,897199,842523,Hombre,2024-09-18_17h07.48.752,tarea_iceberg,2023.2.3,59.73876239185745,2024-09-18 17h08.17.505768 +0200,
3,0.6,0.05,,,,,,,,,,,,,,,,,,,,,,,,,,,,,,,,,,,,,0,5,5,5,,,,,,,,,,,,,,,,,,,,,,,,,170.06329329998698,,,,,,,,,,,,,,,,,,,,,,,,,,,,,,,,,,,,,,,,,,,,,,,,,,,,,,,,,,,169.30469080002513,169.3087352999719,None,,,,,,,,,,,,,,,,,,,,,,,,,,,,,,,,,,897199,842523,Hombre,2024-09-18_17h07.48.752,tarea_iceberg,2023.2.3,59.73876239185745,2024-09-18 17h08.17.505768 +0200,
10,-0.3,0.05,,,,,,,,,,,,,,,,,,,,,,,,,,,,,,,,,,,,,0,6,6,1,,,,,,,,,,,,,,,,,,,,,,,,,170.06329329998698,,,,,,,,,,,,,,,,,,,,,,,,,,,,,,,,,,,,,,,,,,,,,,,,,,,,,,,,,,,169.30892810004298,169.3128157000756,None,,,,,,,,,,,,,,,,,,,,,,,,,,,,,,,,,,897199,842523,Hombre,2024-09-18_17h07.48.752,tarea_iceberg,2023.2.3,59.73876239185745,2024-09-18 17h08.17.505768 +0200,
8,-0.1,0.05,,,,,,,,,,,,,,,,,,,,,,,,,,,,,,,,,,,,,0,7,7,3,,,,,,,,,,,,,,,,,,,,,,,,,170.06329329998698,,,,,,,,,,,,,,,,,,,,,,,,,,,,,,,,,,,,,,,,,,,,,,,,,,,,,,,,,,,169.3129889999982,169.3165840000147,None,,,,,,,,,,,,,,,,,,,,,,,,,,,,,,,,,,897199,842523,Hombre,2024-09-18_17h07.48.752,tarea_iceberg,2023.2.3,59.73876239185745,2024-09-18 17h08.17.505768 +0200,
4,-0.4,0.05,,,,,,,,,,,,,,,,,,,,,,,,,,,,,,,,,,,,,,,,,0,0,0,4,,,,,,,,,,,,,,,,,,,,,170.06329329998698,,,,,,,,,,,,,,,,,,,,,,,,,,,,,,,,,,,,,,,,,,,,,,,,,,,,,,,,,,,,,,169.352297800011,169.35690540005453,None,,,,,,,,,,,,,,,,,,,,,,,,,,,,,,,897199,842523,Hombre,2024-09-18_17h07.48.752,tarea_iceberg,2023.2.3,59.73876239185745,2024-09-18 17h08.17.505768 +0200,
8,-0.1,0.05,,,,,,,,,,,,,,,,,,,,,,,,,,,,,,,,,,,,,,,,,0,1,1,3,,,,,,,,,,,,,,,,,,,,,170.06329329998698,,,,,,,,,,,,,,,,,,,,,,,,,,,,,,,,,,,,,,,,,,,,,,,,,,,,,,,,,,,,,,169.3571448000148,169.36087109998334,None,,,,,,,,,,,,,,,,,,,,,,,,,,,,,,,897199,842523,Hombre,2024-09-18_17h07.48.752,tarea_iceberg,2023.2.3,59.73876239185745,2024-09-18 17h08.17.505768 +0200,
12,-0.1,0.05,,,,,,,,,,,,,,,,,,,,,,,,,,,,,,,,,,,,,,,,,0,2,2,6,,,,,,,,,,,,,,,,,,,,,170.06329329998698,,,,,,,,,,,,,,,,,,,,,,,,,,,,,,,,,,,,,,,,,,,,,,,,,,,,,,,,,,,,,,169.3610516000772,169.36460890003946,None,,,,,,,,,,,,,,,,,,,,,,,,,,,,,,,897199,842523,Hombre,2024-09-18_17h07.48.752,tarea_iceberg,2023.2.3,59.73876239185745,2024-09-18 17h08.17.505768 +0200,
10,-0.3,0.05,,,,,,,,,,,,,,,,,,,,,,,,,,,,,,,,,,,,,,,,,0,3,3,1,,,,,,,,,,,,,,,,,,,,,170.06329329998698,,,,,,,,,,,,,,,,,,,,,,,,,,,,,,,,,,,,,,,,,,,,,,,,,,,,,,,,,,,,,,169.36480079998728,169.36838080000598,None,,,,,,,,,,,,,,,,,,,,,,,,,,,,,,,897199,842523,Hombre,2024-09-18_17h07.48.752,tarea_iceberg,2023.2.3,59.73876239185745,2024-09-18 17h08.17.505768 +0200,
14,-0.6,0.05,,,,,,,,,,,,,,,,,,,,,,,,,,,,,,,,,,,,,,,,,0,4,4,2,,,,,,,,,,,,,,,,,,,,,170.06329329998698,,,,,,,,,,,,,,,,,,,,,,,,,,,,,,,,,,,,,,,,,,,,,,,,,,,,,,,,,,,,,,169.36855550005566,169.3721315000439,None,,,,,,,,,,,,,,,,,,,,,,,,,,,,,,,897199,842523,Hombre,2024-09-18_17h07.48.752,tarea_iceberg,2023.2.3,59.73876239185745,2024-09-18 17h08.17.505768 +0200,
10,-0.7,0.05,,,,,,,,,,,,,,,,,,,,,,,,,,,,,,,,,,,,,,,,,0,5,5,0,,,,,,,,,,,,,,,,,,,,,170.06329329998698,,,,,,,,,,,,,,,,,,,,,,,,,,,,,,,,,,,,,,,,,,,,,,,,,,,,,,,,,,,,,,169.37228240002878,169.3762666999828,None,,,,,,,,,,,,,,,,,,,,,,,,,,,,,,,897199,842523,Hombre,2024-09-18_17h07.48.752,tarea_iceberg,2023.2.3,59.73876239185745,2024-09-18 17h08.17.505768 +0200,
3,0.6,0.05,,,,,,,,,,,,,,,,,,,,,,,,,,,,,,,,,,,,,,,,,0,6,6,5,,,,,,,,,,,,,,,,,,,,,170.06329329998698,,,,,,,,,,,,,,,,,,,,,,,,,,,,,,,,,,,,,,,,,,,,,,,,,,,,,,,,,,,,,,169.37644730007742,169.3802850000793,None,,,,,,,,,,,,,,,,,,,,,,,,,,,,,,,897199,842523,Hombre,2024-09-18_17h07.48.752,tarea_iceberg,2023.2.3,59.73876239185745,2024-09-18 17h08.17.505768 +0200,
11,-0.3,0.05,,,,,,,,,,,,,,,,,,,,,,,,,,,,,,,,,,,,,,,,,0,7,7,7,,,,,,,,,,,,,,,,,,,,,170.06329329998698,,,,,,,,,,,,,,,,,,,,,,,,,,,,,,,,,,,,,,,,,,,,,,,,,,,,,,,,,,,,,,169.38045519997831,169.38505869999062,None,,,,,,,,,,,,,,,,,,,,,,,,,,,,,,,897199,842523,Hombre,2024-09-18_17h07.48.752,tarea_iceberg,2023.2.3,59.73876239185745,2024-09-18 17h08.17.505768 +0200,
12,-0.1,0.05,,,,,,,,,,,,,,,,,,,,,,,,,,,,,,,,,,,,,,,,,,,,,0,0,0,6,,,,,,,,,,,,,,,,,170.06329329998698,,,,,,,,,,,,,,,,,,,,,,,,,,,,,,,,,,,,,,,,,,,,,,,,,,,,,,,,,,,,,,,,,169.4219102000352,181.42490220000036,181.42490220000036,181.849905100069,space,0.4224329999415204,None,,,,,,,,,,,,,,,,,,,,,,,,897199,842523,Hombre,2024-09-18_17h07.48.752,tarea_iceberg,2023.2.3,59.73876239185745,2024-09-18 17h08.17.505768 +0200,
10,-0.7,0.05,,,,,,,,,,,,,,,,,,,,,,,,,,,,,,,,,,,,,,,,,,,,,0,1,1,0,,,,,,,,,,,,,,,,,181.8644833000144,,,,,,,,,,,,,,,,,,,,,,,,,,,,,,,,,,,,,,,,,,,,,,,,,,,,,,,,,,,,,,,,,181.85051919997204,191.86527100007515,191.86527100007515,192.17677929997444,space,0.31025959993712604,None,,,,,,,,,,,,,,,,,,,,,,,,897199,842523,Hombre,2024-09-18_17h07.48.752,tarea_iceberg,2023.2.3,59.73876239185745,2024-09-18 17h08.17.505768 +0200,
4,-0.4,0.05,,,,,,,,,,,,,,,,,,,,,,,,,,,,,,,,,,,,,,,,,,,,,0,2,2,4,,,,,,,,,,,,,,,,,192.1913768000668,,,,,,,,,,,,,,,,,,,,,,,,,,,,,,,,,,,,,,,,,,,,,,,,,,,,,,,,,,,,,,,,,192.17707630002405,196.18806419998873,196.18806419998873,196.61660140007734,space,0.41922849998809397,None,,,,,,,,,,,,,,,,,,,,,,,,897199,842523,Hombre,2024-09-18_17h07.48.752,tarea_iceberg,2023.2.3,59.73876239185745,2024-09-18 17h08.17.505768 +0200,
8,-0.1,0.05,,,,,,,,,,,,,,,,,,,,,,,,,,,,,,,,,,,,,,,,,,,,,0,3,3,3,,,,,,,,,,,,,,,,,196.6324922000058,,,,,,,,,,,,,,,,,,,,,,,,,,,,,,,,,,,,,,,,,,,,,,,,,,,,,,,,,,,,,,,,,196.6169482000405,204.62800610007253,204.62800610007253,205.02937080000993,space,0.3953627999871969,None,,,,,,,,,,,,,,,,,,,,,,,,897199,842523,Hombre,2024-09-18_17h07.48.752,tarea_iceberg,2023.2.3,59.73876239185745,2024-09-18 17h08.17.505768 +0200,
10,-0.3,0.05,,,,,,,,,,,,,,,,,,,,,,,,,,,,,,,,,,,,,,,,,,,,,0,4,4,1,,,,,,,,,,,,,,,,,205.05377170001157,,,,,,,,,,,,,,,,,,,,,,,,,,,,,,,,,,,,,,,,,,,,,,,,,,,,,,,,,,,,,,,,,205.02963630005252,215.03832030005287,215.03832030005287,215.49332600005437,space,0.44901219999883324,None,,,,,,,,,,,,,,,,,,,,,,,,897199,842523,Hombre,2024-09-18_17h07.48.752,tarea_iceberg,2023.2.3,59.73876239185745,2024-09-18 17h08.17.505768 +0200,
14,-0.6,0.05,,,,,,,,,,,,,,,,,,,,,,,,,,,,,,,,,,,,,,,,,,,,,0,5,5,2,,,,,,,,,,,,,,,,,215.50818630005233,,,,,,,,,,,,,,,,,,,,,,,,,,,,,,,,,,,,,,,,,,,,,,,,,,,,,,,,,,,,,,,,,215.49359610001557,229.5026496000355,229.5026496000355,230.21421060001012,space,0.6898882000241429,None,,,,,,,,,,,,,,,,,,,,,,,,897199,842523,Hombre,2024-09-18_17h07.48.752,tarea_iceberg,2023.2.3,59.73876239185745,2024-09-18 17h08.17.505768 +0200,
11,-0.3,0.05,,,,,,,,,,,,,,,,,,,,,,,,,,,,,,,,,,,,,,,,,,,,,0,6,6,7,,,,,,,,,,,,,,,,,230.229841100052,,,,,,,,,,,,,,,,,,,,,,,,,,,,,,,,,,,,,,,,,,,,,,,,,,,,,,,,,,,,,,,,,230.21453230001498,241.21390650002286,241.21390650002286,241.6232963000657,space,0.3929937001084909,None,,,,,,,,,,,,,,,,,,,,,,,,897199,842523,Hombre,2024-09-18_17h07.48.752,tarea_iceberg,2023.2.3,59.73876239185745,2024-09-18 17h08.17.505768 +0200,
3,0.6,0.05,,,,,,,,,,,,,,,,,,,,,,,,,,,,,,,,,,,,,,,,,,,,,0,7,7,5,,,,,,,,,,,,,,,,,241.63945700007025,,,,,,,,,,,,,,,,,,,,,,,,,,,,,,,,,,,,,,,,,,,,,,,,,,,,,,,,,,,,,,,,,241.62357940000948,244.6359395000618,244.6359395000618,245.06065110000782,space,0.41123540000990033,None,,,,,,,,,,,,,,,,,,,,,,,,897199,842523,Hombre,2024-09-18_17h07.48.752,tarea_iceberg,2023.2.3,59.73876239185745,2024-09-18 17h08.17.505768 +0200,
9,-0.5,0.05,,,,,,,,,,,,,,,,,,,,,,,,,,,,,,,,,,,,,,,,,,,,,,,,,0,0,0,7,,,,,,,,,,,,,247.72113249998074,,,,,,,,,,,,,,,,,,,,,,,,,,,,,,,,,,,,,,,,,,,,,,,,,,,,,,,,,,,,,,,,,,,,,,,,245.119591100025,245.12970559997484,247.1211944000097,247.13569650007412,247.14078889996745,None,,,,,,,,,,,,,,,,,,897199,842523,Hombre,2024-09-18_17h07.48.752,tarea_iceberg,2023.2.3,59.73876239185745,2024-09-18 17h08.17.505768 +0200,
11,-0.2,0.05,,,,,,,,,,,,,,,,,,,,,,,,,,,,,,,,,,,,,,,,,,,,,,,,,0,1,1,6,,,,,,,,,,,,,247.72113249998074,,,,,,,,,,,,,,,,,,,,,,,,,,,,,,,,,,,,,,,,,,,,,,,,,,,,,,,,,,,,,,,,,,,,,,,,,,,247.1410668999888,247.14514490007423,None,,,,,,,,,,,,,,,,,,897199,842523,Hombre,2024-09-18_17h07.48.752,tarea_iceberg,2023.2.3,59.73876239185745,2024-09-18 17h08.17.505768 +0200,
6,-0.5,0.05,,,,,,,,,,,,,,,,,,,,,,,,,,,,,,,,,,,,,,,,,,,,,,,,,0,2,2,4,,,,,,,,,,,,,247.72113249998074,,,,,,,,,,,,,,,,,,,,,,,,,,,,,,,,,,,,,,,,,,,,,,,,,,,,,,,,,,,,,,,,,,,,,,,,,,,247.14536660001613,247.14947780000512,None,,,,,,,,,,,,,,,,,,897199,842523,Hombre,2024-09-18_17h07.48.752,tarea_iceberg,2023.2.3,59.73876239185745,2024-09-18 17h08.17.505768 +0200,
7,0.2,0.05,,,,,,,,,,,,,,,,,,,,,,,,,,,,,,,,,,,,,,,,,,,,,,,,,0,3,3,0,,,,,,,,,,,,,247.72113249998074,,,,,,,,,,,,,,,,,,,,,,,,,,,,,,,,,,,,,,,,,,,,,,,,,,,,,,,,,,,,,,,,,,,,,,,,,,,247.14967249997426,247.1540766999824,None,,,,,,,,,,,,,,,,,,897199,842523,Hombre,2024-09-18_17h07.48.752,tarea_iceberg,2023.2.3,59.73876239185745,2024-09-18 17h08.17.505768 +0200,
13,-0.5,0.05,,,,,,,,,,,,,,,,,,,,,,,,,,,,,,,,,,,,,,,,,,,,,,,,,0,4,4,5,,,,,,,,,,,,,247.72113249998074,,,,,,,,,,,,,,,,,,,,,,,,,,,,,,,,,,,,,,,,,,,,,,,,,,,,,,,,,,,,,,,,,,,,,,,,,,,247.1542648000177,247.15838120004628,None,,,,,,,,,,,,,,,,,,897199,842523,Hombre,2024-09-18_17h07.48.752,tarea_iceberg,2023.2.3,59.73876239185745,2024-09-18 17h08.17.505768 +0200,
12,-0.2,0.05,,,,,,,,,,,,,,,,,,,,,,,,,,,,,,,,,,,,,,,,,,,,,,,,,0,5,5,1,,,,,,,,,,,,,247.72113249998074,,,,,,,,,,,,,,,,,,,,,,,,,,,,,,,,,,,,,,,,,,,,,,,,,,,,,,,,,,,,,,,,,,,,,,,,,,,247.1586106000468,247.16300579998642,None,,,,,,,,,,,,,,,,,,897199,842523,Hombre,2024-09-18_17h07.48.752,tarea_iceberg,2023.2.3,59.73876239185745,2024-09-18 17h08.17.505768 +0200,
5,-0.4,0.05,,,,,,,,,,,,,,,,,,,,,,,,,,,,,,,,,,,,,,,,,,,,,,,,,0,6,6,3,,,,,,,,,,,,,247.72113249998074,,,,,,,,,,,,,,,,,,,,,,,,,,,,,,,,,,,,,,,,,,,,,,,,,,,,,,,,,,,,,,,,,,,,,,,,,,,247.16325880005024,247.16779500001576,None,,,,,,,,,,,,,,,,,,897199,842523,Hombre,2024-09-18_17h07.48.752,tarea_iceberg,2023.2.3,59.73876239185745,2024-09-18 17h08.17.505768 +0200,
5,-0.3,0.05,,,,,,,,,,,,,,,,,,,,,,,,,,,,,,,,,,,,,,,,,,,,,,,,,0,7,7,2,,,,,,,,,,,,,247.72113249998074,,,,,,,,,,,,,,,,,,,,,,,,,,,,,,,,,,,,,,,,,,,,,,,,,,,,,,,,,,,,,,,,,,,,,,,,,,,247.16799109999556,247.17239860002883,None,,,,,,,,,,,,,,,,,,897199,842523,Hombre,2024-09-18_17h07.48.752,tarea_iceberg,2023.2.3,59.73876239185745,2024-09-18 17h08.17.505768 +0200,
9,-0.5,0.05,,,,,,,,,,,,,,,,,,,,,,,,,,,,,,,,,,,,,,,,,,,,,,,,,,,,,0,0,0,7,,,,,,,,,247.72113249998074,,,,,,,,,,,,,,,,,,,,,,,,,,,,,,,,,,,,,,,,,,,,,,,,,,,,,,,,,,,,,,,,,,,,,,,,,,,,,,247.1850505999755,256.1794108999893,256.1794108999893,256.56694559997413,space,0.38035869994200766,None,,,,,,,,,,,897199,842523,Hombre,2024-09-18_17h07.48.752,tarea_iceberg,2023.2.3,59.73876239185745,2024-09-18 17h08.17.505768 +0200,
12,-0.2,0.05,,,,,,,,,,,,,,,,,,,,,,,,,,,,,,,,,,,,,,,,,,,,,,,,,,,,,0,1,1,1,,,,,,,,,256.5890238999855,,,,,,,,,,,,,,,,,,,,,,,,,,,,,,,,,,,,,,,,,,,,,,,,,,,,,,,,,,,,,,,,,,,,,,,,,,,,,,256.5673032000195,268.5751820000587,268.5751820000587,268.92818669998087,space,0.3518015000736341,None,,,,,,,,,,,897199,842523,Hombre,2024-09-18_17h07.48.752,tarea_iceberg,2023.2.3,59.73876239185745,2024-09-18 17h08.17.505768 +0200,
7,0.2,0.05,,,,,,,,,,,,,,,,,,,,,,,,,,,,,,,,,,,,,,,,,,,,,,,,,,,,,0,2,2,0,,,,,,,,,268.9445081000449,,,,,,,,,,,,,,,,,,,,,,,,,,,,,,,,,,,,,,,,,,,,,,,,,,,,,,,,,,,,,,,,,,,,,,,,,,,,,,268.92845350003336,275.93335639999714,275.93335639999714,276.2934168999782,space,0.33810759999323636,None,,,,,,,,,,,897199,842523,Hombre,2024-09-18_17h07.48.752,tarea_iceberg,2023.2.3,59.73876239185745,2024-09-18 17h08.17.505768 +0200,
5,-0.3,0.05,,,,,,,,,,,,,,,,,,,,,,,,,,,,,,,,,,,,,,,,,,,,,,,,,,,,,0,3,3,2,,,,,,,,,276.3091847000178,,,,,,,,,,,,,,,,,,,,,,,,,,,,,,,,,,,,,,,,,,,,,,,,,,,,,,,,,,,,,,,,,,,,,,,,,,,,,,276.29385480005294,281.30425460007973,281.30425460007973,281.67862190003507,space,0.35909599997103214,None,,,,,,,,,,,897199,842523,Hombre,2024-09-18_17h07.48.752,tarea_iceberg,2023.2.3,59.73876239185745,2024-09-18 17h08.17.505768 +0200,
5,-0.4,0.05,,,,,,,,,,,,,,,,,,,,,,,,,,,,,,,,,,,,,,,,,,,,,,,,,,,,,0,4,4,3,,,,,,,,,281.6945258000633,,,,,,,,,,,,,,,,,,,,,,,,,,,,,,,,,,,,,,,,,,,,,,,,,,,,,,,,,,,,,,,,,,,,,,,,,,,,,,281.6791126000462,286.6928691000212,286.6928691000212,287.15010620001704,space,0.4433703999966383,None,,,,,,,,,,,897199,842523,Hombre,2024-09-18_17h07.48.752,tarea_iceberg,2023.2.3,59.73876239185745,2024-09-18 17h08.17.505768 +0200,
6,-0.5,0.05,,,,,,,,,,,,,,,,,,,,,,,,,,,,,,,,,,,,,,,,,,,,,,,,,,,,,0,5,5,4,,,,,,,,,287.1672114999965,,,,,,,,,,,,,,,,,,,,,,,,,,,,,,,,,,,,,,,,,,,,,,,,,,,,,,,,,,,,,,,,,,,,,,,,,,,,,,287.15055070002563,293.1503281000769,293.1503281000769,293.62510720000137,space,0.457942400011234,None,,,,,,,,,,,897199,842523,Hombre,2024-09-18_17h07.48.752,tarea_iceberg,2023.2.3,59.73876239185745,2024-09-18 17h08.17.505768 +0200,
11,-0.2,0.05,,,,,,,,,,,,,,,,,,,,,,,,,,,,,,,,,,,,,,,,,,,,,,,,,,,,,0,6,6,6,,,,,,,,,293.64094880002085,,,,,,,,,,,,,,,,,,,,,,,,,,,,,,,,,,,,,,,,,,,,,,,,,,,,,,,,,,,,,,,,,,,,,,,,,,,,,,293.62555150000844,304.62779080006294,304.62779080006294,304.99842970003374,space,0.3550056000240147,None,,,,,,,,,,,897199,842523,Hombre,2024-09-18_17h07.48.752,tarea_iceberg,2023.2.3,59.73876239185745,2024-09-18 17h08.17.505768 +0200,
13,-0.5,0.05,,,,,,,,,,,,,,,,,,,,,,,,,,,,,,,,,,,,,,,,,,,,,,,,,,,,,0,7,7,5,,,,,,,,,305.01400990004186,,,,,,,,,,,,,,,,,,,,,,,,,,,,,,,,,,,,,,,,,,,,,,,,,,,,,,,,,,,,,,,,,,,,,,,,,,,,,,304.9986921000527,318.0097956000827,318.0097956000827,318.3985187000362,space,0.380915499990806,None,,,,,,,,,,,897199,842523,Hombre,2024-09-18_17h07.48.752,tarea_iceberg,2023.2.3,59.73876239185745,2024-09-18 17h08.17.505768 +0200,
7,0.2,0.05,,,,,,,,,,,,,,,,,,,,,,,,,,,,,,,,,,,,,,,,,,,,,,,,,,,,,,,,,0,0,0,0,,,,,318.6086699999869,,,,,,,,,,,,,,,,,,,,,,,,,,,,,,,,,,,,,,,,,,,,,,,,,,,,,,,,,,,,,,,,,,,,,,,,,,,,,,,,,,,,,318.4407727000071,318.44616669998504,None,,,,,,,,897199,842523,Hombre,2024-09-18_17h07.48.752,tarea_iceberg,2023.2.3,59.73876239185745,2024-09-18 17h08.17.505768 +0200,
9,-0.5,0.05,,,,,,,,,,,,,,,,,,,,,,,,,,,,,,,,,,,,,,,,,,,,,,,,,,,,,,,,,0,1,1,7,,,,,318.6086699999869,,,,,,,,,,,,,,,,,,,,,,,,,,,,,,,,,,,,,,,,,,,,,,,,,,,,,,,,,,,,,,,,,,,,,,,,,,,,,,,,,,,,,318.4464089999674,318.45041450008284,None,,,,,,,,897199,842523,Hombre,2024-09-18_17h07.48.752,tarea_iceberg,2023.2.3,59.73876239185745,2024-09-18 17h08.17.505768 +0200,
11,-0.2,0.05,,,,,,,,,,,,,,,,,,,,,,,,,,,,,,,,,,,,,,,,,,,,,,,,,,,,,,,,,0,2,2,6,,,,,318.6086699999869,,,,,,,,,,,,,,,,,,,,,,,,,,,,,,,,,,,,,,,,,,,,,,,,,,,,,,,,,,,,,,,,,,,,,,,,,,,,,,,,,,,,,318.45061990001705,318.4545553000644,None,,,,,,,,897199,842523,Hombre,2024-09-18_17h07.48.752,tarea_iceberg,2023.2.3,59.73876239185745,2024-09-18 17h08.17.505768 +0200,
13,-0.5,0.05,,,,,,,,,,,,,,,,,,,,,,,,,,,,,,,,,,,,,,,,,,,,,,,,,,,,,,,,,0,3,3,5,,,,,318.6086699999869,,,,,,,,,,,,,,,,,,,,,,,,,,,,,,,,,,,,,,,,,,,,,,,,,,,,,,,,,,,,,,,,,,,,,,,,,,,,,,,,,,,,,318.4547627000138,318.45884630002547,None,,,,,,,,897199,842523,Hombre,2024-09-18_17h07.48.752,tarea_iceberg,2023.2.3,59.73876239185745,2024-09-18 17h08.17.505768 +0200,
5,-0.4,0.05,,,,,,,,,,,,,,,,,,,,,,,,,,,,,,,,,,,,,,,,,,,,,,,,,,,,,,,,,0,4,4,3,,,,,318.6086699999869,,,,,,,,,,,,,,,,,,,,,,,,,,,,,,,,,,,,,,,,,,,,,,,,,,,,,,,,,,,,,,,,,,,,,,,,,,,,,,,,,,,,,318.45902980002575,318.4628878000658,None,,,,,,,,897199,842523,Hombre,2024-09-18_17h07.48.752,tarea_iceberg,2023.2.3,59.73876239185745,2024-09-18 17h08.17.505768 +0200,
5,-0.3,0.05,,,,,,,,,,,,,,,,,,,,,,,,,,,,,,,,,,,,,,,,,,,,,,,,,,,,,,,,,0,5,5,2,,,,,318.6086699999869,,,,,,,,,,,,,,,,,,,,,,,,,,,,,,,,,,,,,,,,,,,,,,,,,,,,,,,,,,,,,,,,,,,,,,,,,,,,,,,,,,,,,318.463062099996,318.466881499975,None,,,,,,,,897199,842523,Hombre,2024-09-18_17h07.48.752,tarea_iceberg,2023.2.3,59.73876239185745,2024-09-18 17h08.17.505768 +0200,
6,-0.5,0.05,,,,,,,,,,,,,,,,,,,,,,,,,,,,,,,,,,,,,,,,,,,,,,,,,,,,,,,,,0,6,6,4,,,,,318.6086699999869,,,,,,,,,,,,,,,,,,,,,,,,,,,,,,,,,,,,,,,,,,,,,,,,,,,,,,,,,,,,,,,,,,,,,,,,,,,,,,,,,,,,,318.46704030002,318.47093950002454,None,,,,,,,,897199,842523,Hombre,2024-09-18_17h07.48.752,tarea_iceberg,2023.2.3,59.73876239185745,2024-09-18 17h08.17.505768 +0200,
12,-0.2,0.05,,,,,,,,,,,,,,,,,,,,,,,,,,,,,,,,,,,,,,,,,,,,,,,,,,,,,,,,,0,7,7,1,,,,,318.6086699999869,,,,,,,,,,,,,,,,,,,,,,,,,,,,,,,,,,,,,,,,,,,,,,,,,,,,,,,,,,,,,,,,,,,,,,,,,,,,,,,,,,,,,318.47113530000206,318.475196900079,None,,,,,,,,897199,842523,Hombre,2024-09-18_17h07.48.752,tarea_iceberg,2023.2.3,59.73876239185745,2024-09-18 17h08.17.505768 +0200,
12,-0.2,0.05,,,,,,,,,,,,,,,,,,,,,,,,,,,,,,,,,,,,,,,,,,,,,,,,,,,,,,,,,,,,,0,0,0,1,318.6086699999869,,,,,,,,,,,,,,,,,,,,,,,,,,,,,,,,,,,,,,,,,,,,,,,,,,,,,,,,,,,,,,,,,,,,,,,,,,,,,,,,,,,,,,,,318.51349869999103,318.51899610005785,None,,,,,897199,842523,Hombre,2024-09-18_17h07.48.752,tarea_iceberg,2023.2.3,59.73876239185745,2024-09-18 17h08.17.505768 +0200,
6,-0.5,0.05,,,,,,,,,,,,,,,,,,,,,,,,,,,,,,,,,,,,,,,,,,,,,,,,,,,,,,,,,,,,,0,1,1,4,318.6086699999869,,,,,,,,,,,,,,,,,,,,,,,,,,,,,,,,,,,,,,,,,,,,,,,,,,,,,,,,,,,,,,,,,,,,,,,,,,,,,,,,,,,,,,,,318.51921910000965,318.52346950001083,None,,,,,897199,842523,Hombre,2024-09-18_17h07.48.752,tarea_iceberg,2023.2.3,59.73876239185745,2024-09-18 17h08.17.505768 +0200,
11,-0.2,0.05,,,,,,,,,,,,,,,,,,,,,,,,,,,,,,,,,,,,,,,,,,,,,,,,,,,,,,,,,,,,,0,2,2,6,318.6086699999869,,,,,,,,,,,,,,,,,,,,,,,,,,,,,,,,,,,,,,,,,,,,,,,,,,,,,,,,,,,,,,,,,,,,,,,,,,,,,,,,,,,,,,,,318.5236985000083,318.52773019997403,None,,,,,897199,842523,Hombre,2024-09-18_17h07.48.752,tarea_iceberg,2023.2.3,59.73876239185745,2024-09-18 17h08.17.505768 +0200,
9,-0.5,0.05,,,,,,,,,,,,,,,,,,,,,,,,,,,,,,,,,,,,,,,,,,,,,,,,,,,,,,,,,,,,,0,3,3,7,318.6086699999869,,,,,,,,,,,,,,,,,,,,,,,,,,,,,,,,,,,,,,,,,,,,,,,,,,,,,,,,,,,,,,,,,,,,,,,,,,,,,,,,,,,,,,,,318.52793660003226,318.5329674000386,None,,,,,897199,842523,Hombre,2024-09-18_17h07.48.752,tarea_iceberg,2023.2.3,59.73876239185745,2024-09-18 17h08.17.505768 +0200,
7,0.2,0.05,,,,,,,,,,,,,,,,,,,,,,,,,,,,,,,,,,,,,,,,,,,,,,,,,,,,,,,,,,,,,0,4,4,0,318.6086699999869,,,,,,,,,,,,,,,,,,,,,,,,,,,,,,,,,,,,,,,,,,,,,,,,,,,,,,,,,,,,,,,,,,,,,,,,,,,,,,,,,,,,,,,,318.5331433999818,318.53838220005855,None,,,,,897199,842523,Hombre,2024-09-18_17h07.48.752,tarea_iceberg,2023.2.3,59.73876239185745,2024-09-18 17h08.17.505768 +0200,
5,-0.4,0.05,,,,,,,,,,,,,,,,,,,,,,,,,,,,,,,,,,,,,,,,,,,,,,,,,,,,,,,,,,,,,0,5,5,3,318.6086699999869,,,,,,,,,,,,,,,,,,,,,,,,,,,,,,,,,,,,,,,,,,,,,,,,,,,,,,,,,,,,,,,,,,,,,,,,,,,,,,,,,,,,,,,,318.53860520001035,318.543742400012,None,,,,,897199,842523,Hombre,2024-09-18_17h07.48.752,tarea_iceberg,2023.2.3,59.73876239185745,2024-09-18 17h08.17.505768 +0200,
5,-0.3,0.05,,,,,,,,,,,,,,,,,,,,,,,,,,,,,,,,,,,,,,,,,,,,,,,,,,,,,,,,,,,,,0,6,6,2,318.6086699999869,,,,,,,,,,,,,,,,,,,,,,,,,,,,,,,,,,,,,,,,,,,,,,,,,,,,,,,,,,,,,,,,,,,,,,,,,,,,,,,,,,,,,,,,318.5439165000571,318.54792380006984,None,,,,,897199,842523,Hombre,2024-09-18_17h07.48.752,tarea_iceberg,2023.2.3,59.73876239185745,2024-09-18 17h08.17.505768 +0200,
13,-0.5,0.05,,,,,,,,,,,,,,,,,,,,,,,,,,,,,,,,,,,,,,,,,,,,,,,,,,,,,,,,,,,,,0,7,7,5,318.6086699999869,,,,,,,,,,,,,,,,,,,,,,,,,,,,,,,,,,,,,,,,,,,,,,,,,,,,,,,,,,,,,,,,,,,,,,,,,,,,,,,,,,,,,,,,318.54819960007444,318.55231850000564,None,,,,,897199,842523,Hombre,2024-09-18_17h07.48.752,tarea_iceberg,2023.2.3,59.73876239185745,2024-09-18 17h08.17.505768 +0200,
,,,,,,,,,,,,,,,,,,,,,,,,,,,,,,,,,,,,,,,,,,,,,,,,,,,,,,,,,,,,,,,,,,,,,,,,,,,,,,,,,,,,,,,,,,,,,,,,,,,,,,,,,,,,,,,,,,,,,,,,,,,,,,,,,,,,,,,,,,,,,,,,,,,,,,,,,,,,,,318.5982774000149,318.6086699999869,320.61031820008066,320.593776899972,,,,,,,,,
