timepresentation,posx,posy,trials.thisRepN,trials.thisTrialN,trials.thisN,trials.thisIndex,trials_2.thisRepN,trials_2.thisTrialN,trials_2.thisN,trials_2.thisIndex,trials_3.thisRepN,trials_3.thisTrialN,trials_3.thisN,trials_3.thisIndex,trials_4.thisRepN,trials_4.thisTrialN,trials_4.thisN,trials_4.thisIndex,trials_5.thisRepN,trials_5.thisTrialN,trials_5.thisN,trials_5.thisIndex,trials_6.thisRepN,trials_6.thisTrialN,trials_6.thisN,trials_6.thisIndex,trials_7.thisRepN,trials_7.thisTrialN,trials_7.thisN,trials_7.thisIndex,trials_8.thisRepN,trials_8.thisTrialN,trials_8.thisN,trials_8.thisIndex,trials_9.thisRepN,trials_9.thisTrialN,trials_9.thisN,trials_9.thisIndex,trials_10.thisRepN,trials_10.thisTrialN,trials_10.thisN,trials_10.thisIndex,trials_11.thisRepN,trials_11.thisTrialN,trials_11.thisN,trials_11.thisIndex,trials_12.thisRepN,trials_12.thisTrialN,trials_12.thisN,trials_12.thisIndex,trials_13.thisRepN,trials_13.thisTrialN,trials_13.thisN,trials_13.thisIndex,trials_14.thisRepN,trials_14.thisTrialN,trials_14.thisN,trials_14.thisIndex,trials_15.thisRepN,trials_15.thisTrialN,trials_15.thisN,trials_15.thisIndex,trials_16.thisRepN,trials_16.thisTrialN,trials_16.thisN,trials_16.thisIndex,thisRow.t,notes,ronda1,ronda2,ronda3,ronda4,portada.started,image_5.started,text_6.started,portada.stopped,instructions.started,text_5.started,key_resp_5.started,instructions.stopped,key_resp_5.keys,key_resp_5.rt,key_resp_5.duration,Ronda_1.started,text_7.started,Ronda_1.stopped,control.started,control.stopped,resp_control_r1.keys,music.started,music.stopped,resp_music_r1.keys,music_words.started,music_words.stopped,resp_musicw_r1.keys,music_video.started,image_4.started,resp_musicv_r1.started,music_video.stopped,resp_musicv_r1.keys,resp_musicv_r1.rt,resp_musicv_r1.duration,Ronda_2.started,text_8.started,Ronda_2.stopped,control2.started,image_6.started,resp_control_r2.started,control2.stopped,resp_control_r2.keys,resp_control_r2.rt,resp_control_r2.duration,music2.started,music2.stopped,resp_music_r2.keys,music_words2.started,music_words2.stopped,resp_musicw_r2.keys,music_video2.started,music_video2.stopped,resp_musicv_r2.keys,Ronda_3.started,text_9.started,Ronda_3.stopped,control3.started,control3.stopped,resp_control_r3.keys,music3.started,music3.stopped,resp_music_r3.keys,music_words3.started,image_12.started,resp_musicw_r3.started,music_words3.stopped,resp_musicw_r3.keys,resp_musicw_r3.rt,resp_musicw_r3.duration,music_video3.started,music_video3.stopped,resp_musicv_r3.keys,Ronda_4.started,text_10.started,Ronda_4.stopped,control4.started,control4.stopped,resp_control_r4.keys,music4.started,image_15.started,resp_music_r4.started,music4.stopped,resp_music_r4.keys,resp_music_r4.rt,resp_music_r4.duration,music_words4.started,music_words4.stopped,resp_musicw_r4.keys,music_video4.started,music_video4.stopped,resp_musicv_r4.keys,final.started,text_4.started,text_4.stopped,final.stopped,participant,Edad,Sexo,date,expName,psychopyVersion,frameRate,expStart,
,,,,,,,,,,,,,,,,,,,,,,,,,,,,,,,,,,,,,,,,,,,,,,,,,,,,,,,,,,,,,,,,,,,,,music_video,control,music_words,music,0.0034904000349342823,0.02905689994804561,0.02905689994804561,3.016728000016883,3.0167377999750897,3.0332906000548974,6.002811299986206,8.690018499968573,space,2.6848683999851346,None,,,,,,,,,,,,,,,,,,,,,,,,,,,,,,,,,,,,,,,,,,,,,,,,,,,,,,,,,,,,,,,,,,,,,,,,,,,,,,,,,David,30,Hombre,2024-09-18_17h50.00.489,tarea_iceberg,2023.2.3,59.96458488384676,2024-09-18 17h50.42.429826 +0200,
4,0.6,0.05,0,0,0,0,,,,,,,,,,,,,,,,,,,,,,,,,,,,,,,,,,,,,,,,,,,,,,,,,,,,,,,,,,,,,10.907098500058055,,,,,,,,,,,,,,,,,8.69004210003186,8.705650000018068,10.691711400053464,10.759072000044398,10.765064400038682,None,,,,,,,,,,,,,,,,,,,,,,,,,,,,,,,,,,,,,,,,,,,,,,,,,,,,,,,,,,,,,,,,,,,,,,,,,,,David,30,Hombre,2024-09-18_17h50.00.489,tarea_iceberg,2023.2.3,59.96458488384676,2024-09-18 17h50.42.429826 +0200,
9,0.2,0.05,0,1,1,1,,,,,,,,,,,,,,,,,,,,,,,,,,,,,,,,,,,,,,,,,,,,,,,,,,,,,,,,,,,,,10.907098500058055,,,,,,,,,,,,,,,,,,,,10.765294900047593,10.770043900003657,None,,,,,,,,,,,,,,,,,,,,,,,,,,,,,,,,,,,,,,,,,,,,,,,,,,,,,,,,,,,,,,,,,,,,,,,,,,,David,30,Hombre,2024-09-18_17h50.00.489,tarea_iceberg,2023.2.3,59.96458488384676,2024-09-18 17h50.42.429826 +0200,
4,0,0.05,0,2,2,2,,,,,,,,,,,,,,,,,,,,,,,,,,,,,,,,,,,,,,,,,,,,,,,,,,,,,,,,,,,,,10.907098500058055,,,,,,,,,,,,,,,,,,,,10.770224299980327,10.775089300004765,None,,,,,,,,,,,,,,,,,,,,,,,,,,,,,,,,,,,,,,,,,,,,,,,,,,,,,,,,,,,,,,,,,,,,,,,,,,,David,30,Hombre,2024-09-18_17h50.00.489,tarea_iceberg,2023.2.3,59.96458488384676,2024-09-18 17h50.42.429826 +0200,
4,0.6,0.05,,,,,0,0,0,0,,,,,,,,,,,,,,,,,,,,,,,,,,,,,,,,,,,,,,,,,,,,,,,,,,,,,,,,,10.907098500058055,,,,,,,,,,,,,,,,,,,,,,,10.787739500054158,10.793128999997862,None,,,,,,,,,,,,,,,,,,,,,,,,,,,,,,,,,,,,,,,,,,,,,,,,,,,,,,,,,,,,,,,,,,,,,,,,David,30,Hombre,2024-09-18_17h50.00.489,tarea_iceberg,2023.2.3,59.96458488384676,2024-09-18 17h50.42.429826 +0200,
9,0.2,0.05,,,,,0,1,1,1,,,,,,,,,,,,,,,,,,,,,,,,,,,,,,,,,,,,,,,,,,,,,,,,,,,,,,,,,10.907098500058055,,,,,,,,,,,,,,,,,,,,,,,10.793381899944507,10.798176000011154,None,,,,,,,,,,,,,,,,,,,,,,,,,,,,,,,,,,,,,,,,,,,,,,,,,,,,,,,,,,,,,,,,,,,,,,,,David,30,Hombre,2024-09-18_17h50.00.489,tarea_iceberg,2023.2.3,59.96458488384676,2024-09-18 17h50.42.429826 +0200,
4,0,0.05,,,,,0,2,2,2,,,,,,,,,,,,,,,,,,,,,,,,,,,,,,,,,,,,,,,,,,,,,,,,,,,,,,,,,10.907098500058055,,,,,,,,,,,,,,,,,,,,,,,10.798357299994677,10.803165900055319,None,,,,,,,,,,,,,,,,,,,,,,,,,,,,,,,,,,,,,,,,,,,,,,,,,,,,,,,,,,,,,,,,,,,,,,,,David,30,Hombre,2024-09-18_17h50.00.489,tarea_iceberg,2023.2.3,59.96458488384676,2024-09-18 17h50.42.429826 +0200,
4,0.6,0.05,,,,,,,,,0,0,0,0,,,,,,,,,,,,,,,,,,,,,,,,,,,,,,,,,,,,,,,,,,,,,,,,,,,,,10.907098500058055,,,,,,,,,,,,,,,,,,,,,,,,,,10.833814000012353,10.841069199959747,None,,,,,,,,,,,,,,,,,,,,,,,,,,,,,,,,,,,,,,,,,,,,,,,,,,,,,,,,,,,,,,,,,,,,,David,30,Hombre,2024-09-18_17h50.00.489,tarea_iceberg,2023.2.3,59.96458488384676,2024-09-18 17h50.42.429826 +0200,
9,0.2,0.05,,,,,,,,,0,1,1,1,,,,,,,,,,,,,,,,,,,,,,,,,,,,,,,,,,,,,,,,,,,,,,,,,,,,,10.907098500058055,,,,,,,,,,,,,,,,,,,,,,,,,,10.841308200033382,10.846194799989462,None,,,,,,,,,,,,,,,,,,,,,,,,,,,,,,,,,,,,,,,,,,,,,,,,,,,,,,,,,,,,,,,,,,,,,David,30,Hombre,2024-09-18_17h50.00.489,tarea_iceberg,2023.2.3,59.96458488384676,2024-09-18 17h50.42.429826 +0200,
4,0,0.05,,,,,,,,,0,2,2,2,,,,,,,,,,,,,,,,,,,,,,,,,,,,,,,,,,,,,,,,,,,,,,,,,,,,,10.907098500058055,,,,,,,,,,,,,,,,,,,,,,,,,,10.846383700030856,10.851259300019592,None,,,,,,,,,,,,,,,,,,,,,,,,,,,,,,,,,,,,,,,,,,,,,,,,,,,,,,,,,,,,,,,,,,,,,David,30,Hombre,2024-09-18_17h50.00.489,tarea_iceberg,2023.2.3,59.96458488384676,2024-09-18 17h50.42.429826 +0200,
4,0.6,0.05,,,,,,,,,,,,,0,0,0,0,,,,,,,,,,,,,,,,,,,,,,,,,,,,,,,,,,,,,,,,,,,,,,,,,10.907098500058055,,,,,,,,,,,,,,,,,,,,,,,,,,,,,10.882862800033763,14.878074700012803,14.878074700012803,15.565153499948792,space,0.6828201999887824,None,,,,,,,,,,,,,,,,,,,,,,,,,,,,,,,,,,,,,,,,,,,,,,,,,,,,,,,,,,,,,,David,30,Hombre,2024-09-18_17h50.00.489,tarea_iceberg,2023.2.3,59.96458488384676,2024-09-18 17h50.42.429826 +0200,
9,0.2,0.05,,,,,,,,,,,,,0,1,1,1,,,,,,,,,,,,,,,,,,,,,,,,,,,,,,,,,,,,,,,,,,,,,,,,,15.580993999959901,,,,,,,,,,,,,,,,,,,,,,,,,,,,,15.565528400009498,24.571669799974188,24.571669799974188,24.983012399985455,space,0.38759349996689707,None,,,,,,,,,,,,,,,,,,,,,,,,,,,,,,,,,,,,,,,,,,,,,,,,,,,,,,,,,,,,,,David,30,Hombre,2024-09-18_17h50.00.489,tarea_iceberg,2023.2.3,59.96458488384676,2024-09-18 17h50.42.429826 +0200,
4,0,0.05,,,,,,,,,,,,,0,2,2,2,,,,,,,,,,,,,,,,,,,,,,,,,,,,,,,,,,,,,,,,,,,,,,,,,24.999076399952173,,,,,,,,,,,,,,,,,,,,,,,,,,,,,24.983334699994884,28.99817349994555,28.99817349994555,29.354968199972063,space,0.35339469998143613,None,,,,,,,,,,,,,,,,,,,,,,,,,,,,,,,,,,,,,,,,,,,,,,,,,,,,,,,,,,,,,,David,30,Hombre,2024-09-18_17h50.00.489,tarea_iceberg,2023.2.3,59.96458488384676,2024-09-18 17h50.42.429826 +0200,
7,0.7,0.05,,,,,,,,,,,,,,,,,0,0,0,0,,,,,,,,,,,,,,,,,,,,,,,,,,,,,,,,,,,,,,,,,,,,,31.986605299985968,,,,,,,,,,,,,,,,,,,,,,,,,,,,,,,,,,,,29.4099260000512,29.419475200003944,31.412653799983673,31.42653399996925,38.418944300035946,38.418944300035946,38.76033720001578,space,0.3246995999943465,None,,,,,,,,,,,,,,,,,,,,,,,,,,,,,,,,,,,,,,,,,,,,,,,,,,,,David,30,Hombre,2024-09-18_17h50.00.489,tarea_iceberg,2023.2.3,59.96458488384676,2024-09-18 17h50.42.429826 +0200,
10,-0.5,0.05,,,,,,,,,,,,,,,,,0,1,1,1,,,,,,,,,,,,,,,,,,,,,,,,,,,,,,,,,,,,,,,,,,,,,38.77635629998986,,,,,,,,,,,,,,,,,,,,,,,,,,,,,,,,,,,,,,,38.76094419998117,48.763424000004306,48.763424000004306,49.06533669994678,space,0.2844260000856593,None,,,,,,,,,,,,,,,,,,,,,,,,,,,,,,,,,,,,,,,,,,,,,,,,,,,,David,30,Hombre,2024-09-18_17h50.00.489,tarea_iceberg,2023.2.3,59.96458488384676,2024-09-18 17h50.42.429826 +0200,
8,-0.6,0.05,,,,,,,,,,,,,,,,,0,2,2,2,,,,,,,,,,,,,,,,,,,,,,,,,,,,,,,,,,,,,,,,,,,,,49.08045550005045,,,,,,,,,,,,,,,,,,,,,,,,,,,,,,,,,,,,,,,49.06560630002059,57.07214860001113,57.07214860001113,57.395995900034904,space,0.3128268999280408,None,,,,,,,,,,,,,,,,,,,,,,,,,,,,,,,,,,,,,,,,,,,,,,,,,,,,David,30,Hombre,2024-09-18_17h50.00.489,tarea_iceberg,2023.2.3,59.96458488384676,2024-09-18 17h50.42.429826 +0200,
7,0.7,0.05,,,,,,,,,,,,,,,,,,,,,0,0,0,0,,,,,,,,,,,,,,,,,,,,,,,,,,,,,,,,,,,,,,,,,57.58180619997438,,,,,,,,,,,,,,,,,,,,,,,,,,,,,,,,,,,,,,,,,,,,,,57.41001800005324,57.4146599000087,None,,,,,,,,,,,,,,,,,,,,,,,,,,,,,,,,,,,,,,,,,,,,,,,,,David,30,Hombre,2024-09-18_17h50.00.489,tarea_iceberg,2023.2.3,59.96458488384676,2024-09-18 17h50.42.429826 +0200,
10,-0.5,0.05,,,,,,,,,,,,,,,,,,,,,0,1,1,1,,,,,,,,,,,,,,,,,,,,,,,,,,,,,,,,,,,,,,,,,57.58180619997438,,,,,,,,,,,,,,,,,,,,,,,,,,,,,,,,,,,,,,,,,,,,,,57.41487129998859,57.41910880000796,None,,,,,,,,,,,,,,,,,,,,,,,,,,,,,,,,,,,,,,,,,,,,,,,,,David,30,Hombre,2024-09-18_17h50.00.489,tarea_iceberg,2023.2.3,59.96458488384676,2024-09-18 17h50.42.429826 +0200,
8,-0.6,0.05,,,,,,,,,,,,,,,,,,,,,0,2,2,2,,,,,,,,,,,,,,,,,,,,,,,,,,,,,,,,,,,,,,,,,57.58180619997438,,,,,,,,,,,,,,,,,,,,,,,,,,,,,,,,,,,,,,,,,,,,,,57.41929880005773,57.42323509999551,None,,,,,,,,,,,,,,,,,,,,,,,,,,,,,,,,,,,,,,,,,,,,,,,,,David,30,Hombre,2024-09-18_17h50.00.489,tarea_iceberg,2023.2.3,59.96458488384676,2024-09-18 17h50.42.429826 +0200,
7,0.7,0.05,,,,,,,,,,,,,,,,,,,,,,,,,0,0,0,0,,,,,,,,,,,,,,,,,,,,,,,,,,,,,,,,,,,,,57.58180619997438,,,,,,,,,,,,,,,,,,,,,,,,,,,,,,,,,,,,,,,,,,,,,,,,,57.46415619994514,57.469059200026095,None,,,,,,,,,,,,,,,,,,,,,,,,,,,,,,,,,,,,,,,,,,,,,,David,30,Hombre,2024-09-18_17h50.00.489,tarea_iceberg,2023.2.3,59.96458488384676,2024-09-18 17h50.42.429826 +0200,
10,-0.5,0.05,,,,,,,,,,,,,,,,,,,,,,,,,0,1,1,1,,,,,,,,,,,,,,,,,,,,,,,,,,,,,,,,,,,,,57.58180619997438,,,,,,,,,,,,,,,,,,,,,,,,,,,,,,,,,,,,,,,,,,,,,,,,,57.46928429999389,57.47334090003278,None,,,,,,,,,,,,,,,,,,,,,,,,,,,,,,,,,,,,,,,,,,,,,,David,30,Hombre,2024-09-18_17h50.00.489,tarea_iceberg,2023.2.3,59.96458488384676,2024-09-18 17h50.42.429826 +0200,
8,-0.6,0.05,,,,,,,,,,,,,,,,,,,,,,,,,0,2,2,2,,,,,,,,,,,,,,,,,,,,,,,,,,,,,,,,,,,,,57.58180619997438,,,,,,,,,,,,,,,,,,,,,,,,,,,,,,,,,,,,,,,,,,,,,,,,,57.47352730005514,57.477654900052585,None,,,,,,,,,,,,,,,,,,,,,,,,,,,,,,,,,,,,,,,,,,,,,,David,30,Hombre,2024-09-18_17h50.00.489,tarea_iceberg,2023.2.3,59.96458488384676,2024-09-18 17h50.42.429826 +0200,
7,0.7,0.05,,,,,,,,,,,,,,,,,,,,,,,,,,,,,0,0,0,0,,,,,,,,,,,,,,,,,,,,,,,,,,,,,,,,,57.58180619997438,,,,,,,,,,,,,,,,,,,,,,,,,,,,,,,,,,,,,,,,,,,,,,,,,,,,57.51487559999805,57.52099570003338,None,,,,,,,,,,,,,,,,,,,,,,,,,,,,,,,,,,,,,,,,,,,David,30,Hombre,2024-09-18_17h50.00.489,tarea_iceberg,2023.2.3,59.96458488384676,2024-09-18 17h50.42.429826 +0200,
10,-0.5,0.05,,,,,,,,,,,,,,,,,,,,,,,,,,,,,0,1,1,1,,,,,,,,,,,,,,,,,,,,,,,,,,,,,,,,,57.58180619997438,,,,,,,,,,,,,,,,,,,,,,,,,,,,,,,,,,,,,,,,,,,,,,,,,,,,57.521238500019535,57.52540929999668,None,,,,,,,,,,,,,,,,,,,,,,,,,,,,,,,,,,,,,,,,,,,David,30,Hombre,2024-09-18_17h50.00.489,tarea_iceberg,2023.2.3,59.96458488384676,2024-09-18 17h50.42.429826 +0200,
8,-0.6,0.05,,,,,,,,,,,,,,,,,,,,,,,,,,,,,0,2,2,2,,,,,,,,,,,,,,,,,,,,,,,,,,,,,,,,,57.58180619997438,,,,,,,,,,,,,,,,,,,,,,,,,,,,,,,,,,,,,,,,,,,,,,,,,,,,57.525607499992475,57.5296366000548,None,,,,,,,,,,,,,,,,,,,,,,,,,,,,,,,,,,,,,,,,,,,David,30,Hombre,2024-09-18_17h50.00.489,tarea_iceberg,2023.2.3,59.96458488384676,2024-09-18 17h50.42.429826 +0200,
12,-0.3,0.05,,,,,,,,,,,,,,,,,,,,,,,,,,,,,,,,,0,0,0,0,,,,,,,,,,,,,,,,,,,,,,,,,,,,,60.246027300017886,,,,,,,,,,,,,,,,,,,,,,,,,,,,,,,,,,,,,,,,,,,,,,,,,,,,,,,57.570442100055516,57.58180619997438,59.57333289994858,59.58717069996055,59.5932076999452,None,,,,,,,,,,,,,,,,,,,,,,,,,,,,,,,,,,,,,David,30,Hombre,2024-09-18_17h50.00.489,tarea_iceberg,2023.2.3,59.96458488384676,2024-09-18 17h50.42.429826 +0200,
3,0.4,0.05,,,,,,,,,,,,,,,,,,,,,,,,,,,,,,,,,0,1,1,1,,,,,,,,,,,,,,,,,,,,,,,,,,,,,60.246027300017886,,,,,,,,,,,,,,,,,,,,,,,,,,,,,,,,,,,,,,,,,,,,,,,,,,,,,,,,,,59.59346030000597,59.59744619997218,None,,,,,,,,,,,,,,,,,,,,,,,,,,,,,,,,,,,,,David,30,Hombre,2024-09-18_17h50.00.489,tarea_iceberg,2023.2.3,59.96458488384676,2024-09-18 17h50.42.429826 +0200,
6,-0.3,0.05,,,,,,,,,,,,,,,,,,,,,,,,,,,,,,,,,0,2,2,2,,,,,,,,,,,,,,,,,,,,,,,,,,,,,60.246027300017886,,,,,,,,,,,,,,,,,,,,,,,,,,,,,,,,,,,,,,,,,,,,,,,,,,,,,,,,,,59.59765140002128,59.601313499966636,None,,,,,,,,,,,,,,,,,,,,,,,,,,,,,,,,,,,,,David,30,Hombre,2024-09-18_17h50.00.489,tarea_iceberg,2023.2.3,59.96458488384676,2024-09-18 17h50.42.429826 +0200,
12,-0.3,0.05,,,,,,,,,,,,,,,,,,,,,,,,,,,,,,,,,,,,,0,0,0,0,,,,,,,,,,,,,,,,,,,,,,,,,60.246027300017886,,,,,,,,,,,,,,,,,,,,,,,,,,,,,,,,,,,,,,,,,,,,,,,,,,,,,,,,,,,,,59.61371519998647,59.61776870000176,None,,,,,,,,,,,,,,,,,,,,,,,,,,,,,,,,,,David,30,Hombre,2024-09-18_17h50.00.489,tarea_iceberg,2023.2.3,59.96458488384676,2024-09-18 17h50.42.429826 +0200,
3,0.4,0.05,,,,,,,,,,,,,,,,,,,,,,,,,,,,,,,,,,,,,0,1,1,1,,,,,,,,,,,,,,,,,,,,,,,,,60.246027300017886,,,,,,,,,,,,,,,,,,,,,,,,,,,,,,,,,,,,,,,,,,,,,,,,,,,,,,,,,,,,,59.617972400039434,59.62180820002686,None,,,,,,,,,,,,,,,,,,,,,,,,,,,,,,,,,,David,30,Hombre,2024-09-18_17h50.00.489,tarea_iceberg,2023.2.3,59.96458488384676,2024-09-18 17h50.42.429826 +0200,
6,-0.3,0.05,,,,,,,,,,,,,,,,,,,,,,,,,,,,,,,,,,,,,0,2,2,2,,,,,,,,,,,,,,,,,,,,,,,,,60.246027300017886,,,,,,,,,,,,,,,,,,,,,,,,,,,,,,,,,,,,,,,,,,,,,,,,,,,,,,,,,,,,,59.62197700003162,59.62559950002469,None,,,,,,,,,,,,,,,,,,,,,,,,,,,,,,,,,,David,30,Hombre,2024-09-18_17h50.00.489,tarea_iceberg,2023.2.3,59.96458488384676,2024-09-18 17h50.42.429826 +0200,
12,-0.3,0.05,,,,,,,,,,,,,,,,,,,,,,,,,,,,,,,,,,,,,,,,,0,0,0,0,,,,,,,,,,,,,,,,,,,,,60.246027300017886,,,,,,,,,,,,,,,,,,,,,,,,,,,,,,,,,,,,,,,,,,,,,,,,,,,,,,,,,,,,,,,,59.662507400033064,71.65150210005231,71.65150210005231,71.96061219996773,space,0.3002419000258669,None,,,,,,,,,,,,,,,,,,,,,,,,,,,David,30,Hombre,2024-09-18_17h50.00.489,tarea_iceberg,2023.2.3,59.96458488384676,2024-09-18 17h50.42.429826 +0200,
3,0.4,0.05,,,,,,,,,,,,,,,,,,,,,,,,,,,,,,,,,,,,,,,,,0,1,1,1,,,,,,,,,,,,,,,,,,,,,71.97688570001628,,,,,,,,,,,,,,,,,,,,,,,,,,,,,,,,,,,,,,,,,,,,,,,,,,,,,,,,,,,,,,,,71.96123789995909,74.97317340003792,74.97317340003792,75.68202579999343,space,0.7062071000691503,None,,,,,,,,,,,,,,,,,,,,,,,,,,,David,30,Hombre,2024-09-18_17h50.00.489,tarea_iceberg,2023.2.3,59.96458488384676,2024-09-18 17h50.42.429826 +0200,
6,-0.3,0.05,,,,,,,,,,,,,,,,,,,,,,,,,,,,,,,,,,,,,,,,,0,2,2,2,,,,,,,,,,,,,,,,,,,,,75.6982722999528,,,,,,,,,,,,,,,,,,,,,,,,,,,,,,,,,,,,,,,,,,,,,,,,,,,,,,,,,,,,,,,,75.68264590005856,81.69707840005867,81.69707840005867,82.06403360003605,space,0.3587925999891013,None,,,,,,,,,,,,,,,,,,,,,,,,,,,David,30,Hombre,2024-09-18_17h50.00.489,tarea_iceberg,2023.2.3,59.96458488384676,2024-09-18 17h50.42.429826 +0200,
12,-0.3,0.05,,,,,,,,,,,,,,,,,,,,,,,,,,,,,,,,,,,,,,,,,,,,,0,0,0,0,,,,,,,,,,,,,,,,,82.190278199967,,,,,,,,,,,,,,,,,,,,,,,,,,,,,,,,,,,,,,,,,,,,,,,,,,,,,,,,,,,,,,,,,,,,,,,82.1040666999761,82.1096618999727,None,,,,,,,,,,,,,,,,,,,,,,,,David,30,Hombre,2024-09-18_17h50.00.489,tarea_iceberg,2023.2.3,59.96458488384676,2024-09-18 17h50.42.429826 +0200,
3,0.4,0.05,,,,,,,,,,,,,,,,,,,,,,,,,,,,,,,,,,,,,,,,,,,,,0,1,1,1,,,,,,,,,,,,,,,,,82.190278199967,,,,,,,,,,,,,,,,,,,,,,,,,,,,,,,,,,,,,,,,,,,,,,,,,,,,,,,,,,,,,,,,,,,,,,,82.10990809998475,82.11396240000613,None,,,,,,,,,,,,,,,,,,,,,,,,David,30,Hombre,2024-09-18_17h50.00.489,tarea_iceberg,2023.2.3,59.96458488384676,2024-09-18 17h50.42.429826 +0200,
6,-0.3,0.05,,,,,,,,,,,,,,,,,,,,,,,,,,,,,,,,,,,,,,,,,,,,,0,2,2,2,,,,,,,,,,,,,,,,,82.190278199967,,,,,,,,,,,,,,,,,,,,,,,,,,,,,,,,,,,,,,,,,,,,,,,,,,,,,,,,,,,,,,,,,,,,,,,82.11419939994812,82.11819920002017,None,,,,,,,,,,,,,,,,,,,,,,,,David,30,Hombre,2024-09-18_17h50.00.489,tarea_iceberg,2023.2.3,59.96458488384676,2024-09-18 17h50.42.429826 +0200,
9,-0.6,0.05,,,,,,,,,,,,,,,,,,,,,,,,,,,,,,,,,,,,,,,,,,,,,,,,,0,0,0,0,,,,,,,,,,,,,84.79165969998576,,,,,,,,,,,,,,,,,,,,,,,,,,,,,,,,,,,,,,,,,,,,,,,,,,,,,,,,,,,,,,,,,,,,,,,,,,82.18107169994619,82.190278199967,84.18115720001515,84.19443609996233,84.20063199999277,None,,,,,,,,,,,,,,,,,,David,30,Hombre,2024-09-18_17h50.00.489,tarea_iceberg,2023.2.3,59.96458488384676,2024-09-18 17h50.42.429826 +0200,
14,-0.3,0.05,,,,,,,,,,,,,,,,,,,,,,,,,,,,,,,,,,,,,,,,,,,,,,,,,0,1,1,1,,,,,,,,,,,,,84.79165969998576,,,,,,,,,,,,,,,,,,,,,,,,,,,,,,,,,,,,,,,,,,,,,,,,,,,,,,,,,,,,,,,,,,,,,,,,,,,,,84.20093529997393,84.20540820003953,None,,,,,,,,,,,,,,,,,,David,30,Hombre,2024-09-18_17h50.00.489,tarea_iceberg,2023.2.3,59.96458488384676,2024-09-18 17h50.42.429826 +0200,
3,0.4,0.05,,,,,,,,,,,,,,,,,,,,,,,,,,,,,,,,,,,,,,,,,,,,,,,,,0,2,2,2,,,,,,,,,,,,,84.79165969998576,,,,,,,,,,,,,,,,,,,,,,,,,,,,,,,,,,,,,,,,,,,,,,,,,,,,,,,,,,,,,,,,,,,,,,,,,,,,,84.2056080000475,84.2122107000323,None,,,,,,,,,,,,,,,,,,David,30,Hombre,2024-09-18_17h50.00.489,tarea_iceberg,2023.2.3,59.96458488384676,2024-09-18 17h50.42.429826 +0200,
9,-0.6,0.05,,,,,,,,,,,,,,,,,,,,,,,,,,,,,,,,,,,,,,,,,,,,,,,,,,,,,0,0,0,0,,,,,,,,,84.79165969998576,,,,,,,,,,,,,,,,,,,,,,,,,,,,,,,,,,,,,,,,,,,,,,,,,,,,,,,,,,,,,,,,,,,,,,,,,,,,,,,,84.22609709994867,93.22365729999729,93.22365729999729,93.64359430002514,space,0.4015241999877617,None,,,,,,,,,,,David,30,Hombre,2024-09-18_17h50.00.489,tarea_iceberg,2023.2.3,59.96458488384676,2024-09-18 17h50.42.429826 +0200,
14,-0.3,0.05,,,,,,,,,,,,,,,,,,,,,,,,,,,,,,,,,,,,,,,,,,,,,,,,,,,,,0,1,1,1,,,,,,,,,93.66727420000825,,,,,,,,,,,,,,,,,,,,,,,,,,,,,,,,,,,,,,,,,,,,,,,,,,,,,,,,,,,,,,,,,,,,,,,,,,,,,,,,93.64395779999904,107.6542590999743,107.6542590999743,107.96417359996121,space,0.2969808999914676,None,,,,,,,,,,,David,30,Hombre,2024-09-18_17h50.00.489,tarea_iceberg,2023.2.3,59.96458488384676,2024-09-18 17h50.42.429826 +0200,
3,0.4,0.05,,,,,,,,,,,,,,,,,,,,,,,,,,,,,,,,,,,,,,,,,,,,,,,,,,,,,0,2,2,2,,,,,,,,,107.98089819995221,,,,,,,,,,,,,,,,,,,,,,,,,,,,,,,,,,,,,,,,,,,,,,,,,,,,,,,,,,,,,,,,,,,,,,,,,,,,,,,,107.9646272000391,110.97505839995574,110.97505839995574,111.31002910004463,space,0.32027579995337874,None,,,,,,,,,,,David,30,Hombre,2024-09-18_17h50.00.489,tarea_iceberg,2023.2.3,59.96458488384676,2024-09-18 17h50.42.429826 +0200,
9,-0.6,0.05,,,,,,,,,,,,,,,,,,,,,,,,,,,,,,,,,,,,,,,,,,,,,,,,,,,,,,,,,0,0,0,0,,,,,111.49096439999994,,,,,,,,,,,,,,,,,,,,,,,,,,,,,,,,,,,,,,,,,,,,,,,,,,,,,,,,,,,,,,,,,,,,,,,,,,,,,,,,,,,,,,,111.35280210000928,111.35806340002455,None,,,,,,,,David,30,Hombre,2024-09-18_17h50.00.489,tarea_iceberg,2023.2.3,59.96458488384676,2024-09-18 17h50.42.429826 +0200,
14,-0.3,0.05,,,,,,,,,,,,,,,,,,,,,,,,,,,,,,,,,,,,,,,,,,,,,,,,,,,,,,,,,0,1,1,1,,,,,111.49096439999994,,,,,,,,,,,,,,,,,,,,,,,,,,,,,,,,,,,,,,,,,,,,,,,,,,,,,,,,,,,,,,,,,,,,,,,,,,,,,,,,,,,,,,,111.3583225000184,111.36248929996509,None,,,,,,,,David,30,Hombre,2024-09-18_17h50.00.489,tarea_iceberg,2023.2.3,59.96458488384676,2024-09-18 17h50.42.429826 +0200,
3,0.4,0.05,,,,,,,,,,,,,,,,,,,,,,,,,,,,,,,,,,,,,,,,,,,,,,,,,,,,,,,,,0,2,2,2,,,,,111.49096439999994,,,,,,,,,,,,,,,,,,,,,,,,,,,,,,,,,,,,,,,,,,,,,,,,,,,,,,,,,,,,,,,,,,,,,,,,,,,,,,,,,,,,,,,111.36267279996537,111.36670470004901,None,,,,,,,,David,30,Hombre,2024-09-18_17h50.00.489,tarea_iceberg,2023.2.3,59.96458488384676,2024-09-18 17h50.42.429826 +0200,
9,-0.6,0.05,,,,,,,,,,,,,,,,,,,,,,,,,,,,,,,,,,,,,,,,,,,,,,,,,,,,,,,,,,,,,0,0,0,0,111.49096439999994,,,,,,,,,,,,,,,,,,,,,,,,,,,,,,,,,,,,,,,,,,,,,,,,,,,,,,,,,,,,,,,,,,,,,,,,,,,,,,,,,,,,,,,,,,111.40488789998926,111.41036109998822,None,,,,,David,30,Hombre,2024-09-18_17h50.00.489,tarea_iceberg,2023.2.3,59.96458488384676,2024-09-18 17h50.42.429826 +0200,
14,-0.3,0.05,,,,,,,,,,,,,,,,,,,,,,,,,,,,,,,,,,,,,,,,,,,,,,,,,,,,,,,,,,,,,0,1,1,1,111.49096439999994,,,,,,,,,,,,,,,,,,,,,,,,,,,,,,,,,,,,,,,,,,,,,,,,,,,,,,,,,,,,,,,,,,,,,,,,,,,,,,,,,,,,,,,,,,111.41064080002252,111.41489090002142,None,,,,,David,30,Hombre,2024-09-18_17h50.00.489,tarea_iceberg,2023.2.3,59.96458488384676,2024-09-18 17h50.42.429826 +0200,
3,0.4,0.05,,,,,,,,,,,,,,,,,,,,,,,,,,,,,,,,,,,,,,,,,,,,,,,,,,,,,,,,,,,,,0,2,2,2,111.49096439999994,,,,,,,,,,,,,,,,,,,,,,,,,,,,,,,,,,,,,,,,,,,,,,,,,,,,,,,,,,,,,,,,,,,,,,,,,,,,,,,,,,,,,,,,,,111.41509669995867,111.41906039998867,None,,,,,David,30,Hombre,2024-09-18_17h50.00.489,tarea_iceberg,2023.2.3,59.96458488384676,2024-09-18 17h50.42.429826 +0200,
,,,,,,,,,,,,,,,,,,,,,,,,,,,,,,,,,,,,,,,,,,,,,,,,,,,,,,,,,,,,,,,,,,,,,,,,,,,,,,,,,,,,,,,,,,,,,,,,,,,,,,,,,,,,,,,,,,,,,,,,,,,,,,,,,,,,,,,,,,,,,,,,,,,,,,,,,,,,,,,,111.48134960001335,111.49096439999994,113.49342690000776,113.47718170005828,,,,,,,,,
