timepresentation,posx,posy,trials.thisRepN,trials.thisTrialN,trials.thisN,trials.thisIndex,trials_2.thisRepN,trials_2.thisTrialN,trials_2.thisN,trials_2.thisIndex,trials_3.thisRepN,trials_3.thisTrialN,trials_3.thisN,trials_3.thisIndex,trials_4.thisRepN,trials_4.thisTrialN,trials_4.thisN,trials_4.thisIndex,trials_5.thisRepN,trials_5.thisTrialN,trials_5.thisN,trials_5.thisIndex,trials_6.thisRepN,trials_6.thisTrialN,trials_6.thisN,trials_6.thisIndex,trials_7.thisRepN,trials_7.thisTrialN,trials_7.thisN,trials_7.thisIndex,trials_8.thisRepN,trials_8.thisTrialN,trials_8.thisN,trials_8.thisIndex,trials_9.thisRepN,trials_9.thisTrialN,trials_9.thisN,trials_9.thisIndex,trials_10.thisRepN,trials_10.thisTrialN,trials_10.thisN,trials_10.thisIndex,trials_11.thisRepN,trials_11.thisTrialN,trials_11.thisN,trials_11.thisIndex,trials_12.thisRepN,trials_12.thisTrialN,trials_12.thisN,trials_12.thisIndex,trials_13.thisRepN,trials_13.thisTrialN,trials_13.thisN,trials_13.thisIndex,trials_14.thisRepN,trials_14.thisTrialN,trials_14.thisN,trials_14.thisIndex,trials_15.thisRepN,trials_15.thisTrialN,trials_15.thisN,trials_15.thisIndex,trials_16.thisRepN,trials_16.thisTrialN,trials_16.thisN,trials_16.thisIndex,thisRow.t,notes,ronda1,ronda2,ronda3,ronda4,portada.started,image_5.started,text_6.started,portada.stopped,instructions.started,text_5.started,key_resp_5.started,instructions.stopped,key_resp_5.keys,key_resp_5.rt,key_resp_5.duration,Ronda_1.started,text_7.started,Ronda_1.stopped,control.started,control.stopped,resp_control_r1.keys,music.started,music.stopped,resp_music_r1.keys,music_words.started,image_3.started,resp_musicw_r1.started,music_words.stopped,resp_musicw_r1.keys,resp_musicw_r1.rt,resp_musicw_r1.duration,music_video.started,music_video.stopped,resp_musicv_r1.keys,Ronda_2.started,text_8.started,Ronda_2.stopped,control2.started,control2.stopped,resp_control_r2.keys,music2.started,image_7.started,resp_music_r2.started,music2.stopped,resp_music_r2.keys,resp_music_r2.rt,resp_music_r2.duration,music_words2.started,music_words2.stopped,resp_musicw_r2.keys,music_video2.started,music_video2.stopped,resp_musicv_r2.keys,Ronda_3.started,text_9.started,Ronda_3.stopped,control3.started,control3.stopped,resp_control_r3.keys,music3.started,music3.stopped,resp_music_r3.keys,music_words3.started,music_words3.stopped,resp_musicw_r3.keys,music_video3.started,image_13.started,resp_musicv_r3.started,music_video3.stopped,resp_musicv_r3.keys,resp_musicv_r3.rt,resp_musicv_r3.duration,Ronda_4.started,text_10.started,Ronda_4.stopped,control4.started,image_14.started,resp_control_r4.started,control4.stopped,resp_control_r4.keys,resp_control_r4.rt,resp_control_r4.duration,music4.started,music4.stopped,resp_music_r4.keys,music_words4.started,music_words4.stopped,resp_musicw_r4.keys,music_video4.started,music_video4.stopped,resp_musicv_r4.keys,final.started,text_4.started,final.stopped,participant,Edad,Sexo,date,expName,psychopyVersion,frameRate,expStart,
,,,,,,,,,,,,,,,,,,,,,,,,,,,,,,,,,,,,,,,,,,,,,,,,,,,,,,,,,,,,,,,,,,,,,music_words,music,music_video,control,0.004121999954804778,0.03449960006400943,0.03449960006400943,3.0126098999753594,3.012623199960217,3.0293960000853986,6.010789700085297,7.294683099957183,space,1.2709574000909925,None,,,,,,,,,,,,,,,,,,,,,,,,,,,,,,,,,,,,,,,,,,,,,,,,,,,,,,,,,,,,,,,,,,,,,,,,,,,,,,,,davidb,264706,Hombre,2025-05-06_09h39.12.361,tarea_iceberg,2023.2.3,60.155550215669095,2025-05-06 09h40.01.248126 +0200,
8,0.2,0.05,0,0,0,0,,,,,,,,,,,,,,,,,,,,,,,,,,,,,,,,,,,,,,,,,,,,,,,,,,,,,,,,,,,,,9.842542400117964,,,,,,,,,,,,,,,,,7.294724999926984,7.310482500120997,9.309056099969894,9.433330999920145,9.455196500057355,None,,,,,,,,,,,,,,,,,,,,,,,,,,,,,,,,,,,,,,,,,,,,,,,,,,,,,,,,,,,,,,,,,,,,,,,,,,davidb,264706,Hombre,2025-05-06_09h39.12.361,tarea_iceberg,2023.2.3,60.155550215669095,2025-05-06 09h40.01.248126 +0200,
11,-0.6,0.05,0,1,1,1,,,,,,,,,,,,,,,,,,,,,,,,,,,,,,,,,,,,,,,,,,,,,,,,,,,,,,,,,,,,,9.842542400117964,,,,,,,,,,,,,,,,,,,,9.455800499999896,9.467316800029948,None,,,,,,,,,,,,,,,,,,,,,,,,,,,,,,,,,,,,,,,,,,,,,,,,,,,,,,,,,,,,,,,,,,,,,,,,,,davidb,264706,Hombre,2025-05-06_09h39.12.361,tarea_iceberg,2023.2.3,60.155550215669095,2025-05-06 09h40.01.248126 +0200,
12,-0.3,0.05,0,2,2,2,,,,,,,,,,,,,,,,,,,,,,,,,,,,,,,,,,,,,,,,,,,,,,,,,,,,,,,,,,,,,9.842542400117964,,,,,,,,,,,,,,,,,,,,9.467743700137362,9.478673700010404,None,,,,,,,,,,,,,,,,,,,,,,,,,,,,,,,,,,,,,,,,,,,,,,,,,,,,,,,,,,,,,,,,,,,,,,,,,,davidb,264706,Hombre,2025-05-06_09h39.12.361,tarea_iceberg,2023.2.3,60.155550215669095,2025-05-06 09h40.01.248126 +0200,
5,-0.2,0.05,0,3,3,3,,,,,,,,,,,,,,,,,,,,,,,,,,,,,,,,,,,,,,,,,,,,,,,,,,,,,,,,,,,,,9.842542400117964,,,,,,,,,,,,,,,,,,,,9.47912469995208,9.487631800118834,None,,,,,,,,,,,,,,,,,,,,,,,,,,,,,,,,,,,,,,,,,,,,,,,,,,,,,,,,,,,,,,,,,,,,,,,,,,davidb,264706,Hombre,2025-05-06_09h39.12.361,tarea_iceberg,2023.2.3,60.155550215669095,2025-05-06 09h40.01.248126 +0200,
4,0.6,0.05,0,4,4,4,,,,,,,,,,,,,,,,,,,,,,,,,,,,,,,,,,,,,,,,,,,,,,,,,,,,,,,,,,,,,9.842542400117964,,,,,,,,,,,,,,,,,,,,9.488000000128523,9.496104000136256,None,,,,,,,,,,,,,,,,,,,,,,,,,,,,,,,,,,,,,,,,,,,,,,,,,,,,,,,,,,,,,,,,,,,,,,,,,,davidb,264706,Hombre,2025-05-06_09h39.12.361,tarea_iceberg,2023.2.3,60.155550215669095,2025-05-06 09h40.01.248126 +0200,
13,-0.1,0.05,0,5,5,5,,,,,,,,,,,,,,,,,,,,,,,,,,,,,,,,,,,,,,,,,,,,,,,,,,,,,,,,,,,,,9.842542400117964,,,,,,,,,,,,,,,,,,,,9.496426300145686,9.50438109994866,None,,,,,,,,,,,,,,,,,,,,,,,,,,,,,,,,,,,,,,,,,,,,,,,,,,,,,,,,,,,,,,,,,,,,,,,,,,davidb,264706,Hombre,2025-05-06_09h39.12.361,tarea_iceberg,2023.2.3,60.155550215669095,2025-05-06 09h40.01.248126 +0200,
5,-0.3,0.05,0,6,6,6,,,,,,,,,,,,,,,,,,,,,,,,,,,,,,,,,,,,,,,,,,,,,,,,,,,,,,,,,,,,,9.842542400117964,,,,,,,,,,,,,,,,,,,,9.504836099920794,9.513305200031027,None,,,,,,,,,,,,,,,,,,,,,,,,,,,,,,,,,,,,,,,,,,,,,,,,,,,,,,,,,,,,,,,,,,,,,,,,,,davidb,264706,Hombre,2025-05-06_09h39.12.361,tarea_iceberg,2023.2.3,60.155550215669095,2025-05-06 09h40.01.248126 +0200,
10,0.4,0.05,0,7,7,7,,,,,,,,,,,,,,,,,,,,,,,,,,,,,,,,,,,,,,,,,,,,,,,,,,,,,,,,,,,,,9.842542400117964,,,,,,,,,,,,,,,,,,,,9.51364429993555,9.521486100042239,None,,,,,,,,,,,,,,,,,,,,,,,,,,,,,,,,,,,,,,,,,,,,,,,,,,,,,,,,,,,,,,,,,,,,,,,,,,davidb,264706,Hombre,2025-05-06_09h39.12.361,tarea_iceberg,2023.2.3,60.155550215669095,2025-05-06 09h40.01.248126 +0200,
11,0.4,0.05,0,8,8,8,,,,,,,,,,,,,,,,,,,,,,,,,,,,,,,,,,,,,,,,,,,,,,,,,,,,,,,,,,,,,9.842542400117964,,,,,,,,,,,,,,,,,,,,9.521932099945843,9.532273000106215,None,,,,,,,,,,,,,,,,,,,,,,,,,,,,,,,,,,,,,,,,,,,,,,,,,,,,,,,,,,,,,,,,,,,,,,,,,,davidb,264706,Hombre,2025-05-06_09h39.12.361,tarea_iceberg,2023.2.3,60.155550215669095,2025-05-06 09h40.01.248126 +0200,
6,-0.7,0.05,0,9,9,9,,,,,,,,,,,,,,,,,,,,,,,,,,,,,,,,,,,,,,,,,,,,,,,,,,,,,,,,,,,,,9.842542400117964,,,,,,,,,,,,,,,,,,,,9.532597300130874,9.540966199943796,None,,,,,,,,,,,,,,,,,,,,,,,,,,,,,,,,,,,,,,,,,,,,,,,,,,,,,,,,,,,,,,,,,,,,,,,,,,davidb,264706,Hombre,2025-05-06_09h39.12.361,tarea_iceberg,2023.2.3,60.155550215669095,2025-05-06 09h40.01.248126 +0200,
8,0.2,0.05,,,,,0,0,0,0,,,,,,,,,,,,,,,,,,,,,,,,,,,,,,,,,,,,,,,,,,,,,,,,,,,,,,,,,9.842542400117964,,,,,,,,,,,,,,,,,,,,,,,9.56877400004305,9.577545500127599,None,,,,,,,,,,,,,,,,,,,,,,,,,,,,,,,,,,,,,,,,,,,,,,,,,,,,,,,,,,,,,,,,,,,,,,,davidb,264706,Hombre,2025-05-06_09h39.12.361,tarea_iceberg,2023.2.3,60.155550215669095,2025-05-06 09h40.01.248126 +0200,
11,-0.6,0.05,,,,,0,1,1,1,,,,,,,,,,,,,,,,,,,,,,,,,,,,,,,,,,,,,,,,,,,,,,,,,,,,,,,,,9.842542400117964,,,,,,,,,,,,,,,,,,,,,,,9.577964599942788,9.587013399926946,None,,,,,,,,,,,,,,,,,,,,,,,,,,,,,,,,,,,,,,,,,,,,,,,,,,,,,,,,,,,,,,,,,,,,,,,davidb,264706,Hombre,2025-05-06_09h39.12.361,tarea_iceberg,2023.2.3,60.155550215669095,2025-05-06 09h40.01.248126 +0200,
12,-0.3,0.05,,,,,0,2,2,2,,,,,,,,,,,,,,,,,,,,,,,,,,,,,,,,,,,,,,,,,,,,,,,,,,,,,,,,,9.842542400117964,,,,,,,,,,,,,,,,,,,,,,,9.587520099943504,9.595785700017586,None,,,,,,,,,,,,,,,,,,,,,,,,,,,,,,,,,,,,,,,,,,,,,,,,,,,,,,,,,,,,,,,,,,,,,,,davidb,264706,Hombre,2025-05-06_09h39.12.361,tarea_iceberg,2023.2.3,60.155550215669095,2025-05-06 09h40.01.248126 +0200,
5,-0.2,0.05,,,,,0,3,3,3,,,,,,,,,,,,,,,,,,,,,,,,,,,,,,,,,,,,,,,,,,,,,,,,,,,,,,,,,9.842542400117964,,,,,,,,,,,,,,,,,,,,,,,9.596187700051814,9.604685400146991,None,,,,,,,,,,,,,,,,,,,,,,,,,,,,,,,,,,,,,,,,,,,,,,,,,,,,,,,,,,,,,,,,,,,,,,,davidb,264706,Hombre,2025-05-06_09h39.12.361,tarea_iceberg,2023.2.3,60.155550215669095,2025-05-06 09h40.01.248126 +0200,
4,0.6,0.05,,,,,0,4,4,4,,,,,,,,,,,,,,,,,,,,,,,,,,,,,,,,,,,,,,,,,,,,,,,,,,,,,,,,,9.842542400117964,,,,,,,,,,,,,,,,,,,,,,,9.605035500135273,9.615536500001326,None,,,,,,,,,,,,,,,,,,,,,,,,,,,,,,,,,,,,,,,,,,,,,,,,,,,,,,,,,,,,,,,,,,,,,,,davidb,264706,Hombre,2025-05-06_09h39.12.361,tarea_iceberg,2023.2.3,60.155550215669095,2025-05-06 09h40.01.248126 +0200,
13,-0.1,0.05,,,,,0,5,5,5,,,,,,,,,,,,,,,,,,,,,,,,,,,,,,,,,,,,,,,,,,,,,,,,,,,,,,,,,9.842542400117964,,,,,,,,,,,,,,,,,,,,,,,9.615855799987912,9.62664179992862,None,,,,,,,,,,,,,,,,,,,,,,,,,,,,,,,,,,,,,,,,,,,,,,,,,,,,,,,,,,,,,,,,,,,,,,,davidb,264706,Hombre,2025-05-06_09h39.12.361,tarea_iceberg,2023.2.3,60.155550215669095,2025-05-06 09h40.01.248126 +0200,
5,-0.3,0.05,,,,,0,6,6,6,,,,,,,,,,,,,,,,,,,,,,,,,,,,,,,,,,,,,,,,,,,,,,,,,,,,,,,,,9.842542400117964,,,,,,,,,,,,,,,,,,,,,,,9.6270904999692,9.637968800030649,None,,,,,,,,,,,,,,,,,,,,,,,,,,,,,,,,,,,,,,,,,,,,,,,,,,,,,,,,,,,,,,,,,,,,,,,davidb,264706,Hombre,2025-05-06_09h39.12.361,tarea_iceberg,2023.2.3,60.155550215669095,2025-05-06 09h40.01.248126 +0200,
10,0.4,0.05,,,,,0,7,7,7,,,,,,,,,,,,,,,,,,,,,,,,,,,,,,,,,,,,,,,,,,,,,,,,,,,,,,,,,9.842542400117964,,,,,,,,,,,,,,,,,,,,,,,9.638399299932644,9.648640000028536,None,,,,,,,,,,,,,,,,,,,,,,,,,,,,,,,,,,,,,,,,,,,,,,,,,,,,,,,,,,,,,,,,,,,,,,,davidb,264706,Hombre,2025-05-06_09h39.12.361,tarea_iceberg,2023.2.3,60.155550215669095,2025-05-06 09h40.01.248126 +0200,
11,0.4,0.05,,,,,0,8,8,8,,,,,,,,,,,,,,,,,,,,,,,,,,,,,,,,,,,,,,,,,,,,,,,,,,,,,,,,,9.842542400117964,,,,,,,,,,,,,,,,,,,,,,,9.649032999994233,9.658509599976242,None,,,,,,,,,,,,,,,,,,,,,,,,,,,,,,,,,,,,,,,,,,,,,,,,,,,,,,,,,,,,,,,,,,,,,,,davidb,264706,Hombre,2025-05-06_09h39.12.361,tarea_iceberg,2023.2.3,60.155550215669095,2025-05-06 09h40.01.248126 +0200,
6,-0.7,0.05,,,,,0,9,9,9,,,,,,,,,,,,,,,,,,,,,,,,,,,,,,,,,,,,,,,,,,,,,,,,,,,,,,,,,9.842542400117964,,,,,,,,,,,,,,,,,,,,,,,9.659095600014552,9.668519899947569,None,,,,,,,,,,,,,,,,,,,,,,,,,,,,,,,,,,,,,,,,,,,,,,,,,,,,,,,,,,,,,,,,,,,,,,,davidb,264706,Hombre,2025-05-06_09h39.12.361,tarea_iceberg,2023.2.3,60.155550215669095,2025-05-06 09h40.01.248126 +0200,
8,0.2,0.05,,,,,,,,,0,0,0,0,,,,,,,,,,,,,,,,,,,,,,,,,,,,,,,,,,,,,,,,,,,,,,,,,,,,,9.842542400117964,,,,,,,,,,,,,,,,,,,,,,,,,,9.727095700101927,17.703946700086817,17.703946700086817,18.060384300071746,space,0.35297819995321333,None,,,,,,,,,,,,,,,,,,,,,,,,,,,,,,,,,,,,,,,,,,,,,,,,,,,,,,,,,,,,,,,,davidb,264706,Hombre,2025-05-06_09h39.12.361,tarea_iceberg,2023.2.3,60.155550215669095,2025-05-06 09h40.01.248126 +0200,
11,-0.6,0.05,,,,,,,,,0,1,1,1,,,,,,,,,,,,,,,,,,,,,,,,,,,,,,,,,,,,,,,,,,,,,,,,,,,,,18.09598600002937,,,,,,,,,,,,,,,,,,,,,,,,,,18.061037899926305,29.062346999999136,29.062346999999136,29.38362340000458,space,0.3145896999631077,None,,,,,,,,,,,,,,,,,,,,,,,,,,,,,,,,,,,,,,,,,,,,,,,,,,,,,,,,,,,,,,,,davidb,264706,Hombre,2025-05-06_09h39.12.361,tarea_iceberg,2023.2.3,60.155550215669095,2025-05-06 09h40.01.248126 +0200,
12,-0.3,0.05,,,,,,,,,0,2,2,2,,,,,,,,,,,,,,,,,,,,,,,,,,,,,,,,,,,,,,,,,,,,,,,,,,,,,29.406229400075972,,,,,,,,,,,,,,,,,,,,,,,,,,29.38433920009993,41.39513209997676,41.39513209997676,41.75512270000763,space,0.3494800999760628,None,,,,,,,,,,,,,,,,,,,,,,,,,,,,,,,,,,,,,,,,,,,,,,,,,,,,,,,,,,,,,,,,davidb,264706,Hombre,2025-05-06_09h39.12.361,tarea_iceberg,2023.2.3,60.155550215669095,2025-05-06 09h40.01.248126 +0200,
5,-0.2,0.05,,,,,,,,,0,3,3,3,,,,,,,,,,,,,,,,,,,,,,,,,,,,,,,,,,,,,,,,,,,,,,,,,,,,,41.786468999926,,,,,,,,,,,,,,,,,,,,,,,,,,41.75594840012491,46.76817860011943,46.76817860011943,47.16419030004181,space,0.3843907997943461,None,,,,,,,,,,,,,,,,,,,,,,,,,,,,,,,,,,,,,,,,,,,,,,,,,,,,,,,,,,,,,,,,davidb,264706,Hombre,2025-05-06_09h39.12.361,tarea_iceberg,2023.2.3,60.155550215669095,2025-05-06 09h40.01.248126 +0200,
4,0.6,0.05,,,,,,,,,0,4,4,4,,,,,,,,,,,,,,,,,,,,,,,,,,,,,,,,,,,,,,,,,,,,,,,,,,,,,47.195937199983746,,,,,,,,,,,,,,,,,,,,,,,,,,47.16460229991935,51.165811700047925,51.165811700047925,51.52582320012152,space,0.3479891999159008,None,,,,,,,,,,,,,,,,,,,,,,,,,,,,,,,,,,,,,,,,,,,,,,,,,,,,,,,,,,,,,,,,davidb,264706,Hombre,2025-05-06_09h39.12.361,tarea_iceberg,2023.2.3,60.155550215669095,2025-05-06 09h40.01.248126 +0200,
13,-0.1,0.05,,,,,,,,,0,5,5,5,,,,,,,,,,,,,,,,,,,,,,,,,,,,,,,,,,,,,,,,,,,,,,,,,,,,,51.56127110007219,,,,,,,,,,,,,,,,,,,,,,,,,,51.52670760010369,64.57160159992054,64.57160159992054,64.9569856999442,space,0.35806420003063977,None,,,,,,,,,,,,,,,,,,,,,,,,,,,,,,,,,,,,,,,,,,,,,,,,,,,,,,,,,,,,,,,,davidb,264706,Hombre,2025-05-06_09h39.12.361,tarea_iceberg,2023.2.3,60.155550215669095,2025-05-06 09h40.01.248126 +0200,
5,-0.3,0.05,,,,,,,,,0,6,6,6,,,,,,,,,,,,,,,,,,,,,,,,,,,,,,,,,,,,,,,,,,,,,,,,,,,,,64.98861030000262,,,,,,,,,,,,,,,,,,,,,,,,,,64.95745310001075,69.96975839999504,69.96975839999504,70.3209623999428,space,0.3356512999162078,None,,,,,,,,,,,,,,,,,,,,,,,,,,,,,,,,,,,,,,,,,,,,,,,,,,,,,,,,,,,,,,,,davidb,264706,Hombre,2025-05-06_09h39.12.361,tarea_iceberg,2023.2.3,60.155550215669095,2025-05-06 09h40.01.248126 +0200,
10,0.4,0.05,,,,,,,,,0,7,7,7,,,,,,,,,,,,,,,,,,,,,,,,,,,,,,,,,,,,,,,,,,,,,,,,,,,,,70.36041650013067,,,,,,,,,,,,,,,,,,,,,,,,,,70.3218676999677,80.33328219992109,80.33328219992109,80.65464280010201,space,0.3080815998837352,None,,,,,,,,,,,,,,,,,,,,,,,,,,,,,,,,,,,,,,,,,,,,,,,,,,,,,,,,,,,,,,,,davidb,264706,Hombre,2025-05-06_09h39.12.361,tarea_iceberg,2023.2.3,60.155550215669095,2025-05-06 09h40.01.248126 +0200,
11,0.4,0.05,,,,,,,,,0,8,8,8,,,,,,,,,,,,,,,,,,,,,,,,,,,,,,,,,,,,,,,,,,,,,,,,,,,,,80.69954810012132,,,,,,,,,,,,,,,,,,,,,,,,,,80.65569039992988,91.6817827001214,91.6817827001214,92.00579710002057,space,0.31908909999765456,None,,,,,,,,,,,,,,,,,,,,,,,,,,,,,,,,,,,,,,,,,,,,,,,,,,,,,,,,,,,,,,,,davidb,264706,Hombre,2025-05-06_09h39.12.361,tarea_iceberg,2023.2.3,60.155550215669095,2025-05-06 09h40.01.248126 +0200,
6,-0.7,0.05,,,,,,,,,0,9,9,9,,,,,,,,,,,,,,,,,,,,,,,,,,,,,,,,,,,,,,,,,,,,,,,,,,,,,92.0558007999789,,,,,,,,,,,,,,,,,,,,,,,,,,92.00628899992444,98.02246779995039,98.02246779995039,98.34468280011788,space,0.3144077998585999,None,,,,,,,,,,,,,,,,,,,,,,,,,,,,,,,,,,,,,,,,,,,,,,,,,,,,,,,,,,,,,,,,davidb,264706,Hombre,2025-05-06_09h39.12.361,tarea_iceberg,2023.2.3,60.155550215669095,2025-05-06 09h40.01.248126 +0200,
8,0.2,0.05,,,,,,,,,,,,,0,0,0,0,,,,,,,,,,,,,,,,,,,,,,,,,,,,,,,,,,,,,,,,,,,,,,,,,98.57914909999818,,,,,,,,,,,,,,,,,,,,,,,,,,,,,,,,,98.40135230007581,98.41287410003133,None,,,,,,,,,,,,,,,,,,,,,,,,,,,,,,,,,,,,,,,,,,,,,,,,,,,,,,,,,,,,,davidb,264706,Hombre,2025-05-06_09h39.12.361,tarea_iceberg,2023.2.3,60.155550215669095,2025-05-06 09h40.01.248126 +0200,
11,-0.6,0.05,,,,,,,,,,,,,0,1,1,1,,,,,,,,,,,,,,,,,,,,,,,,,,,,,,,,,,,,,,,,,,,,,,,,,98.57914909999818,,,,,,,,,,,,,,,,,,,,,,,,,,,,,,,,,98.41340399999171,98.42320580012165,None,,,,,,,,,,,,,,,,,,,,,,,,,,,,,,,,,,,,,,,,,,,,,,,,,,,,,,,,,,,,,davidb,264706,Hombre,2025-05-06_09h39.12.361,tarea_iceberg,2023.2.3,60.155550215669095,2025-05-06 09h40.01.248126 +0200,
12,-0.3,0.05,,,,,,,,,,,,,0,2,2,2,,,,,,,,,,,,,,,,,,,,,,,,,,,,,,,,,,,,,,,,,,,,,,,,,98.57914909999818,,,,,,,,,,,,,,,,,,,,,,,,,,,,,,,,,98.4235966000706,98.43298300006427,None,,,,,,,,,,,,,,,,,,,,,,,,,,,,,,,,,,,,,,,,,,,,,,,,,,,,,,,,,,,,,davidb,264706,Hombre,2025-05-06_09h39.12.361,tarea_iceberg,2023.2.3,60.155550215669095,2025-05-06 09h40.01.248126 +0200,
5,-0.2,0.05,,,,,,,,,,,,,0,3,3,3,,,,,,,,,,,,,,,,,,,,,,,,,,,,,,,,,,,,,,,,,,,,,,,,,98.57914909999818,,,,,,,,,,,,,,,,,,,,,,,,,,,,,,,,,98.43339670007117,98.44283890002407,None,,,,,,,,,,,,,,,,,,,,,,,,,,,,,,,,,,,,,,,,,,,,,,,,,,,,,,,,,,,,,davidb,264706,Hombre,2025-05-06_09h39.12.361,tarea_iceberg,2023.2.3,60.155550215669095,2025-05-06 09h40.01.248126 +0200,
4,0.6,0.05,,,,,,,,,,,,,0,4,4,4,,,,,,,,,,,,,,,,,,,,,,,,,,,,,,,,,,,,,,,,,,,,,,,,,98.57914909999818,,,,,,,,,,,,,,,,,,,,,,,,,,,,,,,,,98.44322360004298,98.4527227000799,None,,,,,,,,,,,,,,,,,,,,,,,,,,,,,,,,,,,,,,,,,,,,,,,,,,,,,,,,,,,,,davidb,264706,Hombre,2025-05-06_09h39.12.361,tarea_iceberg,2023.2.3,60.155550215669095,2025-05-06 09h40.01.248126 +0200,
13,-0.1,0.05,,,,,,,,,,,,,0,5,5,5,,,,,,,,,,,,,,,,,,,,,,,,,,,,,,,,,,,,,,,,,,,,,,,,,98.57914909999818,,,,,,,,,,,,,,,,,,,,,,,,,,,,,,,,,98.45313120004721,98.462370299967,None,,,,,,,,,,,,,,,,,,,,,,,,,,,,,,,,,,,,,,,,,,,,,,,,,,,,,,,,,,,,,davidb,264706,Hombre,2025-05-06_09h39.12.361,tarea_iceberg,2023.2.3,60.155550215669095,2025-05-06 09h40.01.248126 +0200,
5,-0.3,0.05,,,,,,,,,,,,,0,6,6,6,,,,,,,,,,,,,,,,,,,,,,,,,,,,,,,,,,,,,,,,,,,,,,,,,98.57914909999818,,,,,,,,,,,,,,,,,,,,,,,,,,,,,,,,,98.46278990013525,98.47182120010257,None,,,,,,,,,,,,,,,,,,,,,,,,,,,,,,,,,,,,,,,,,,,,,,,,,,,,,,,,,,,,,davidb,264706,Hombre,2025-05-06_09h39.12.361,tarea_iceberg,2023.2.3,60.155550215669095,2025-05-06 09h40.01.248126 +0200,
10,0.4,0.05,,,,,,,,,,,,,0,7,7,7,,,,,,,,,,,,,,,,,,,,,,,,,,,,,,,,,,,,,,,,,,,,,,,,,98.57914909999818,,,,,,,,,,,,,,,,,,,,,,,,,,,,,,,,,98.47217530012131,98.481057099998,None,,,,,,,,,,,,,,,,,,,,,,,,,,,,,,,,,,,,,,,,,,,,,,,,,,,,,,,,,,,,,davidb,264706,Hombre,2025-05-06_09h39.12.361,tarea_iceberg,2023.2.3,60.155550215669095,2025-05-06 09h40.01.248126 +0200,
11,0.4,0.05,,,,,,,,,,,,,0,8,8,8,,,,,,,,,,,,,,,,,,,,,,,,,,,,,,,,,,,,,,,,,,,,,,,,,98.57914909999818,,,,,,,,,,,,,,,,,,,,,,,,,,,,,,,,,98.48147060000338,98.49084850004874,None,,,,,,,,,,,,,,,,,,,,,,,,,,,,,,,,,,,,,,,,,,,,,,,,,,,,,,,,,,,,,davidb,264706,Hombre,2025-05-06_09h39.12.361,tarea_iceberg,2023.2.3,60.155550215669095,2025-05-06 09h40.01.248126 +0200,
6,-0.7,0.05,,,,,,,,,,,,,0,9,9,9,,,,,,,,,,,,,,,,,,,,,,,,,,,,,,,,,,,,,,,,,,,,,,,,,98.57914909999818,,,,,,,,,,,,,,,,,,,,,,,,,,,,,,,,,98.49120920011774,98.50058789993636,None,,,,,,,,,,,,,,,,,,,,,,,,,,,,,,,,,,,,,,,,,,,,,,,,,,,,,,,,,,,,,davidb,264706,Hombre,2025-05-06_09h39.12.361,tarea_iceberg,2023.2.3,60.155550215669095,2025-05-06 09h40.01.248126 +0200,
5,0.4,0.05,,,,,,,,,,,,,,,,,0,0,0,0,,,,,,,,,,,,,,,,,,,,,,,,,,,,,,,,,,,,,,,,,,,,,101.94600560003892,,,,,,,,,,,,,,,,,,,,,,,,,,,,,,,,,,,,98.56303680012934,98.57914909999818,100.56752740009688,100.58677259995602,100.59388900012709,None,,,,,,,,,,,,,,,,,,,,,,,,,,,,,,,,,,,,,,,,,,,,,,,,,,,,,,,davidb,264706,Hombre,2025-05-06_09h39.12.361,tarea_iceberg,2023.2.3,60.155550215669095,2025-05-06 09h40.01.248126 +0200,
14,-0.1,0.05,,,,,,,,,,,,,,,,,0,1,1,1,,,,,,,,,,,,,,,,,,,,,,,,,,,,,,,,,,,,,,,,,,,,,101.94600560003892,,,,,,,,,,,,,,,,,,,,,,,,,,,,,,,,,,,,,,,100.59425690001808,100.60004499997012,None,,,,,,,,,,,,,,,,,,,,,,,,,,,,,,,,,,,,,,,,,,,,,,,,,,,,,,,davidb,264706,Hombre,2025-05-06_09h39.12.361,tarea_iceberg,2023.2.3,60.155550215669095,2025-05-06 09h40.01.248126 +0200,
14,0.3,0.05,,,,,,,,,,,,,,,,,0,2,2,2,,,,,,,,,,,,,,,,,,,,,,,,,,,,,,,,,,,,,,,,,,,,,101.94600560003892,,,,,,,,,,,,,,,,,,,,,,,,,,,,,,,,,,,,,,,100.60032079997472,100.60636850004084,None,,,,,,,,,,,,,,,,,,,,,,,,,,,,,,,,,,,,,,,,,,,,,,,,,,,,,,,davidb,264706,Hombre,2025-05-06_09h39.12.361,tarea_iceberg,2023.2.3,60.155550215669095,2025-05-06 09h40.01.248126 +0200,
11,-0.3,0.05,,,,,,,,,,,,,,,,,0,3,3,3,,,,,,,,,,,,,,,,,,,,,,,,,,,,,,,,,,,,,,,,,,,,,101.94600560003892,,,,,,,,,,,,,,,,,,,,,,,,,,,,,,,,,,,,,,,100.6066398001276,100.61225920007564,None,,,,,,,,,,,,,,,,,,,,,,,,,,,,,,,,,,,,,,,,,,,,,,,,,,,,,,,davidb,264706,Hombre,2025-05-06_09h39.12.361,tarea_iceberg,2023.2.3,60.155550215669095,2025-05-06 09h40.01.248126 +0200,
15,0,0.05,,,,,,,,,,,,,,,,,0,4,4,4,,,,,,,,,,,,,,,,,,,,,,,,,,,,,,,,,,,,,,,,,,,,,101.94600560003892,,,,,,,,,,,,,,,,,,,,,,,,,,,,,,,,,,,,,,,100.61251879995689,100.61848399997689,None,,,,,,,,,,,,,,,,,,,,,,,,,,,,,,,,,,,,,,,,,,,,,,,,,,,,,,,davidb,264706,Hombre,2025-05-06_09h39.12.361,tarea_iceberg,2023.2.3,60.155550215669095,2025-05-06 09h40.01.248126 +0200,
4,-0.5,0.05,,,,,,,,,,,,,,,,,0,5,5,5,,,,,,,,,,,,,,,,,,,,,,,,,,,,,,,,,,,,,,,,,,,,,101.94600560003892,,,,,,,,,,,,,,,,,,,,,,,,,,,,,,,,,,,,,,,100.61877569998614,100.62483180011623,None,,,,,,,,,,,,,,,,,,,,,,,,,,,,,,,,,,,,,,,,,,,,,,,,,,,,,,,davidb,264706,Hombre,2025-05-06_09h39.12.361,tarea_iceberg,2023.2.3,60.155550215669095,2025-05-06 09h40.01.248126 +0200,
3,0.6,0.05,,,,,,,,,,,,,,,,,0,6,6,6,,,,,,,,,,,,,,,,,,,,,,,,,,,,,,,,,,,,,,,,,,,,,101.94600560003892,,,,,,,,,,,,,,,,,,,,,,,,,,,,,,,,,,,,,,,100.62514160014689,100.63078889995813,None,,,,,,,,,,,,,,,,,,,,,,,,,,,,,,,,,,,,,,,,,,,,,,,,,,,,,,,davidb,264706,Hombre,2025-05-06_09h39.12.361,tarea_iceberg,2023.2.3,60.155550215669095,2025-05-06 09h40.01.248126 +0200,
7,-0.4,0.05,,,,,,,,,,,,,,,,,0,7,7,7,,,,,,,,,,,,,,,,,,,,,,,,,,,,,,,,,,,,,,,,,,,,,101.94600560003892,,,,,,,,,,,,,,,,,,,,,,,,,,,,,,,,,,,,,,,100.63115449994802,100.63741410011426,None,,,,,,,,,,,,,,,,,,,,,,,,,,,,,,,,,,,,,,,,,,,,,,,,,,,,,,,davidb,264706,Hombre,2025-05-06_09h39.12.361,tarea_iceberg,2023.2.3,60.155550215669095,2025-05-06 09h40.01.248126 +0200,
3,0,0.05,,,,,,,,,,,,,,,,,0,8,8,8,,,,,,,,,,,,,,,,,,,,,,,,,,,,,,,,,,,,,,,,,,,,,101.94600560003892,,,,,,,,,,,,,,,,,,,,,,,,,,,,,,,,,,,,,,,100.63769549992867,100.6435018000193,None,,,,,,,,,,,,,,,,,,,,,,,,,,,,,,,,,,,,,,,,,,,,,,,,,,,,,,,davidb,264706,Hombre,2025-05-06_09h39.12.361,tarea_iceberg,2023.2.3,60.155550215669095,2025-05-06 09h40.01.248126 +0200,
10,0.2,0.05,,,,,,,,,,,,,,,,,0,9,9,9,,,,,,,,,,,,,,,,,,,,,,,,,,,,,,,,,,,,,,,,,,,,,101.94600560003892,,,,,,,,,,,,,,,,,,,,,,,,,,,,,,,,,,,,,,,100.64387180004269,100.65006350004114,None,,,,,,,,,,,,,,,,,,,,,,,,,,,,,,,,,,,,,,,,,,,,,,,,,,,,,,,davidb,264706,Hombre,2025-05-06_09h39.12.361,tarea_iceberg,2023.2.3,60.155550215669095,2025-05-06 09h40.01.248126 +0200,
5,0.4,0.05,,,,,,,,,,,,,,,,,,,,,0,0,0,0,,,,,,,,,,,,,,,,,,,,,,,,,,,,,,,,,,,,,,,,,101.94600560003892,,,,,,,,,,,,,,,,,,,,,,,,,,,,,,,,,,,,,,,,,,100.66937540005893,105.68748040008359,105.68748040008359,106.07853729999624,space,0.3454209000337869,None,,,,,,,,,,,,,,,,,,,,,,,,,,,,,,,,,,,,,,,,,,,,,,,,davidb,264706,Hombre,2025-05-06_09h39.12.361,tarea_iceberg,2023.2.3,60.155550215669095,2025-05-06 09h40.01.248126 +0200,
14,-0.1,0.05,,,,,,,,,,,,,,,,,,,,,0,1,1,1,,,,,,,,,,,,,,,,,,,,,,,,,,,,,,,,,,,,,,,,,106.12425110000186,,,,,,,,,,,,,,,,,,,,,,,,,,,,,,,,,,,,,,,,,,106.0799841999542,120.11861170013435,120.11861170013435,120.50442350003868,space,0.37038619979284704,None,,,,,,,,,,,,,,,,,,,,,,,,,,,,,,,,,,,,,,,,,,,,,,,,davidb,264706,Hombre,2025-05-06_09h39.12.361,tarea_iceberg,2023.2.3,60.155550215669095,2025-05-06 09h40.01.248126 +0200,
14,0.3,0.05,,,,,,,,,,,,,,,,,,,,,0,2,2,2,,,,,,,,,,,,,,,,,,,,,,,,,,,,,,,,,,,,,,,,,120.52454140014015,,,,,,,,,,,,,,,,,,,,,,,,,,,,,,,,,,,,,,,,,,120.50537450006232,134.52923240000382,134.52923240000382,134.9383515000809,space,0.3673525999765843,None,,,,,,,,,,,,,,,,,,,,,,,,,,,,,,,,,,,,,,,,,,,,,,,,davidb,264706,Hombre,2025-05-06_09h39.12.361,tarea_iceberg,2023.2.3,60.155550215669095,2025-05-06 09h40.01.248126 +0200,
11,-0.3,0.05,,,,,,,,,,,,,,,,,,,,,0,3,3,3,,,,,,,,,,,,,,,,,,,,,,,,,,,,,,,,,,,,,,,,,134.97690439992584,,,,,,,,,,,,,,,,,,,,,,,,,,,,,,,,,,,,,,,,,,134.9392739001196,145.94807110005058,145.94807110005058,146.3740497000981,space,0.38098839996382594,None,,,,,,,,,,,,,,,,,,,,,,,,,,,,,,,,,,,,,,,,,,,,,,,,davidb,264706,Hombre,2025-05-06_09h39.12.361,tarea_iceberg,2023.2.3,60.155550215669095,2025-05-06 09h40.01.248126 +0200,
15,0,0.05,,,,,,,,,,,,,,,,,,,,,0,4,4,4,,,,,,,,,,,,,,,,,,,,,,,,,,,,,,,,,,,,,,,,,146.42051249998622,,,,,,,,,,,,,,,,,,,,,,,,,,,,,,,,,,,,,,,,,,146.37494010012597,161.38464840012603,161.38464840012603,161.7657594999764,space,0.3603757000528276,None,,,,,,,,,,,,,,,,,,,,,,,,,,,,,,,,,,,,,,,,,,,,,,,,davidb,264706,Hombre,2025-05-06_09h39.12.361,tarea_iceberg,2023.2.3,60.155550215669095,2025-05-06 09h40.01.248126 +0200,
4,-0.5,0.05,,,,,,,,,,,,,,,,,,,,,0,5,5,5,,,,,,,,,,,,,,,,,,,,,,,,,,,,,,,,,,,,,,,,,161.78719520010054,,,,,,,,,,,,,,,,,,,,,,,,,,,,,,,,,,,,,,,,,,161.76650950009935,165.78039760002866,165.78039760002866,166.16527150012553,space,0.36548899998888373,None,,,,,,,,,,,,,,,,,,,,,,,,,,,,,,,,,,,,,,,,,,,,,,,,davidb,264706,Hombre,2025-05-06_09h39.12.361,tarea_iceberg,2023.2.3,60.155550215669095,2025-05-06 09h40.01.248126 +0200,
3,0.6,0.05,,,,,,,,,,,,,,,,,,,,,0,6,6,6,,,,,,,,,,,,,,,,,,,,,,,,,,,,,,,,,,,,,,,,,166.1844341000542,,,,,,,,,,,,,,,,,,,,,,,,,,,,,,,,,,,,,,,,,,166.16608839994296,169.1790265000891,169.1790265000891,169.54892150009982,space,0.36663999990560114,None,,,,,,,,,,,,,,,,,,,,,,,,,,,,,,,,,,,,,,,,,,,,,,,,davidb,264706,Hombre,2025-05-06_09h39.12.361,tarea_iceberg,2023.2.3,60.155550215669095,2025-05-06 09h40.01.248126 +0200,
7,-0.4,0.05,,,,,,,,,,,,,,,,,,,,,0,7,7,7,,,,,,,,,,,,,,,,,,,,,,,,,,,,,,,,,,,,,,,,,169.5804133999627,,,,,,,,,,,,,,,,,,,,,,,,,,,,,,,,,,,,,,,,,,169.5493529001251,176.55250889994204,176.55250889994204,176.90613789996132,space,0.3275403999723494,None,,,,,,,,,,,,,,,,,,,,,,,,,,,,,,,,,,,,,,,,,,,,,,,,davidb,264706,Hombre,2025-05-06_09h39.12.361,tarea_iceberg,2023.2.3,60.155550215669095,2025-05-06 09h40.01.248126 +0200,
3,0,0.05,,,,,,,,,,,,,,,,,,,,,0,8,8,8,,,,,,,,,,,,,,,,,,,,,,,,,,,,,,,,,,,,,,,,,176.93931920011528,,,,,,,,,,,,,,,,,,,,,,,,,,,,,,,,,,,,,,,,,,176.90695279999636,179.91754840011708,179.91754840011708,180.31696840003133,space,0.37244009994901717,None,,,,,,,,,,,,,,,,,,,,,,,,,,,,,,,,,,,,,,,,,,,,,,,,davidb,264706,Hombre,2025-05-06_09h39.12.361,tarea_iceberg,2023.2.3,60.155550215669095,2025-05-06 09h40.01.248126 +0200,
10,0.2,0.05,,,,,,,,,,,,,,,,,,,,,0,9,9,9,,,,,,,,,,,,,,,,,,,,,,,,,,,,,,,,,,,,,,,,,180.3480354999192,,,,,,,,,,,,,,,,,,,,,,,,,,,,,,,,,,,,,,,,,,180.31749980011955,190.32742829993367,190.32742829993367,190.69670440000482,space,0.3371447999961674,None,,,,,,,,,,,,,,,,,,,,,,,,,,,,,,,,,,,,,,,,,,,,,,,,davidb,264706,Hombre,2025-05-06_09h39.12.361,tarea_iceberg,2023.2.3,60.155550215669095,2025-05-06 09h40.01.248126 +0200,
5,0.4,0.05,,,,,,,,,,,,,,,,,,,,,,,,,0,0,0,0,,,,,,,,,,,,,,,,,,,,,,,,,,,,,,,,,,,,,191.03436730010435,,,,,,,,,,,,,,,,,,,,,,,,,,,,,,,,,,,,,,,,,,,,,,,,,190.75145129999146,190.7590248999186,None,,,,,,,,,,,,,,,,,,,,,,,,,,,,,,,,,,,,,,,,,,,,,davidb,264706,Hombre,2025-05-06_09h39.12.361,tarea_iceberg,2023.2.3,60.155550215669095,2025-05-06 09h40.01.248126 +0200,
14,-0.1,0.05,,,,,,,,,,,,,,,,,,,,,,,,,0,1,1,1,,,,,,,,,,,,,,,,,,,,,,,,,,,,,,,,,,,,,191.03436730010435,,,,,,,,,,,,,,,,,,,,,,,,,,,,,,,,,,,,,,,,,,,,,,,,,190.75942120002583,190.7670786001254,None,,,,,,,,,,,,,,,,,,,,,,,,,,,,,,,,,,,,,,,,,,,,,davidb,264706,Hombre,2025-05-06_09h39.12.361,tarea_iceberg,2023.2.3,60.155550215669095,2025-05-06 09h40.01.248126 +0200,
14,0.3,0.05,,,,,,,,,,,,,,,,,,,,,,,,,0,2,2,2,,,,,,,,,,,,,,,,,,,,,,,,,,,,,,,,,,,,,191.03436730010435,,,,,,,,,,,,,,,,,,,,,,,,,,,,,,,,,,,,,,,,,,,,,,,,,190.76745439996012,190.77539810002781,None,,,,,,,,,,,,,,,,,,,,,,,,,,,,,,,,,,,,,,,,,,,,,davidb,264706,Hombre,2025-05-06_09h39.12.361,tarea_iceberg,2023.2.3,60.155550215669095,2025-05-06 09h40.01.248126 +0200,
11,-0.3,0.05,,,,,,,,,,,,,,,,,,,,,,,,,0,3,3,3,,,,,,,,,,,,,,,,,,,,,,,,,,,,,,,,,,,,,191.03436730010435,,,,,,,,,,,,,,,,,,,,,,,,,,,,,,,,,,,,,,,,,,,,,,,,,190.77573049999774,190.78251209994778,None,,,,,,,,,,,,,,,,,,,,,,,,,,,,,,,,,,,,,,,,,,,,,davidb,264706,Hombre,2025-05-06_09h39.12.361,tarea_iceberg,2023.2.3,60.155550215669095,2025-05-06 09h40.01.248126 +0200,
15,0,0.05,,,,,,,,,,,,,,,,,,,,,,,,,0,4,4,4,,,,,,,,,,,,,,,,,,,,,,,,,,,,,,,,,,,,,191.03436730010435,,,,,,,,,,,,,,,,,,,,,,,,,,,,,,,,,,,,,,,,,,,,,,,,,190.78284580004402,190.7900434001349,None,,,,,,,,,,,,,,,,,,,,,,,,,,,,,,,,,,,,,,,,,,,,,davidb,264706,Hombre,2025-05-06_09h39.12.361,tarea_iceberg,2023.2.3,60.155550215669095,2025-05-06 09h40.01.248126 +0200,
4,-0.5,0.05,,,,,,,,,,,,,,,,,,,,,,,,,0,5,5,5,,,,,,,,,,,,,,,,,,,,,,,,,,,,,,,,,,,,,191.03436730010435,,,,,,,,,,,,,,,,,,,,,,,,,,,,,,,,,,,,,,,,,,,,,,,,,190.79033280001022,190.79802930005826,None,,,,,,,,,,,,,,,,,,,,,,,,,,,,,,,,,,,,,,,,,,,,,davidb,264706,Hombre,2025-05-06_09h39.12.361,tarea_iceberg,2023.2.3,60.155550215669095,2025-05-06 09h40.01.248126 +0200,
3,0.6,0.05,,,,,,,,,,,,,,,,,,,,,,,,,0,6,6,6,,,,,,,,,,,,,,,,,,,,,,,,,,,,,,,,,,,,,191.03436730010435,,,,,,,,,,,,,,,,,,,,,,,,,,,,,,,,,,,,,,,,,,,,,,,,,190.7983578001149,190.80619839997962,None,,,,,,,,,,,,,,,,,,,,,,,,,,,,,,,,,,,,,,,,,,,,,davidb,264706,Hombre,2025-05-06_09h39.12.361,tarea_iceberg,2023.2.3,60.155550215669095,2025-05-06 09h40.01.248126 +0200,
7,-0.4,0.05,,,,,,,,,,,,,,,,,,,,,,,,,0,7,7,7,,,,,,,,,,,,,,,,,,,,,,,,,,,,,,,,,,,,,191.03436730010435,,,,,,,,,,,,,,,,,,,,,,,,,,,,,,,,,,,,,,,,,,,,,,,,,190.80654469993897,190.81435150001198,None,,,,,,,,,,,,,,,,,,,,,,,,,,,,,,,,,,,,,,,,,,,,,davidb,264706,Hombre,2025-05-06_09h39.12.361,tarea_iceberg,2023.2.3,60.155550215669095,2025-05-06 09h40.01.248126 +0200,
3,0,0.05,,,,,,,,,,,,,,,,,,,,,,,,,0,8,8,8,,,,,,,,,,,,,,,,,,,,,,,,,,,,,,,,,,,,,191.03436730010435,,,,,,,,,,,,,,,,,,,,,,,,,,,,,,,,,,,,,,,,,,,,,,,,,190.81467210012488,190.82231199997477,None,,,,,,,,,,,,,,,,,,,,,,,,,,,,,,,,,,,,,,,,,,,,,davidb,264706,Hombre,2025-05-06_09h39.12.361,tarea_iceberg,2023.2.3,60.155550215669095,2025-05-06 09h40.01.248126 +0200,
10,0.2,0.05,,,,,,,,,,,,,,,,,,,,,,,,,0,9,9,9,,,,,,,,,,,,,,,,,,,,,,,,,,,,,,,,,,,,,191.03436730010435,,,,,,,,,,,,,,,,,,,,,,,,,,,,,,,,,,,,,,,,,,,,,,,,,190.8226169999689,190.83049900014885,None,,,,,,,,,,,,,,,,,,,,,,,,,,,,,,,,,,,,,,,,,,,,,davidb,264706,Hombre,2025-05-06_09h39.12.361,tarea_iceberg,2023.2.3,60.155550215669095,2025-05-06 09h40.01.248126 +0200,
5,0.4,0.05,,,,,,,,,,,,,,,,,,,,,,,,,,,,,0,0,0,0,,,,,,,,,,,,,,,,,,,,,,,,,,,,,,,,,191.03436730010435,,,,,,,,,,,,,,,,,,,,,,,,,,,,,,,,,,,,,,,,,,,,,,,,,,,,190.89000890008174,190.90020749997348,None,,,,,,,,,,,,,,,,,,,,,,,,,,,,,,,,,,,,,,,,,,davidb,264706,Hombre,2025-05-06_09h39.12.361,tarea_iceberg,2023.2.3,60.155550215669095,2025-05-06 09h40.01.248126 +0200,
14,-0.1,0.05,,,,,,,,,,,,,,,,,,,,,,,,,,,,,0,1,1,1,,,,,,,,,,,,,,,,,,,,,,,,,,,,,,,,,191.03436730010435,,,,,,,,,,,,,,,,,,,,,,,,,,,,,,,,,,,,,,,,,,,,,,,,,,,,190.90081170015037,190.90839420002885,None,,,,,,,,,,,,,,,,,,,,,,,,,,,,,,,,,,,,,,,,,,davidb,264706,Hombre,2025-05-06_09h39.12.361,tarea_iceberg,2023.2.3,60.155550215669095,2025-05-06 09h40.01.248126 +0200,
14,0.3,0.05,,,,,,,,,,,,,,,,,,,,,,,,,,,,,0,2,2,2,,,,,,,,,,,,,,,,,,,,,,,,,,,,,,,,,191.03436730010435,,,,,,,,,,,,,,,,,,,,,,,,,,,,,,,,,,,,,,,,,,,,,,,,,,,,190.9086929000914,190.91599739994854,None,,,,,,,,,,,,,,,,,,,,,,,,,,,,,,,,,,,,,,,,,,davidb,264706,Hombre,2025-05-06_09h39.12.361,tarea_iceberg,2023.2.3,60.155550215669095,2025-05-06 09h40.01.248126 +0200,
11,-0.3,0.05,,,,,,,,,,,,,,,,,,,,,,,,,,,,,0,3,3,3,,,,,,,,,,,,,,,,,,,,,,,,,,,,,,,,,191.03436730010435,,,,,,,,,,,,,,,,,,,,,,,,,,,,,,,,,,,,,,,,,,,,,,,,,,,,190.91632840014063,190.92345479992218,None,,,,,,,,,,,,,,,,,,,,,,,,,,,,,,,,,,,,,,,,,,davidb,264706,Hombre,2025-05-06_09h39.12.361,tarea_iceberg,2023.2.3,60.155550215669095,2025-05-06 09h40.01.248126 +0200,
15,0,0.05,,,,,,,,,,,,,,,,,,,,,,,,,,,,,0,4,4,4,,,,,,,,,,,,,,,,,,,,,,,,,,,,,,,,,191.03436730010435,,,,,,,,,,,,,,,,,,,,,,,,,,,,,,,,,,,,,,,,,,,,,,,,,,,,190.92377240001224,190.93113370006904,None,,,,,,,,,,,,,,,,,,,,,,,,,,,,,,,,,,,,,,,,,,davidb,264706,Hombre,2025-05-06_09h39.12.361,tarea_iceberg,2023.2.3,60.155550215669095,2025-05-06 09h40.01.248126 +0200,
4,-0.5,0.05,,,,,,,,,,,,,,,,,,,,,,,,,,,,,0,5,5,5,,,,,,,,,,,,,,,,,,,,,,,,,,,,,,,,,191.03436730010435,,,,,,,,,,,,,,,,,,,,,,,,,,,,,,,,,,,,,,,,,,,,,,,,,,,,190.93147900002077,190.9385132000316,None,,,,,,,,,,,,,,,,,,,,,,,,,,,,,,,,,,,,,,,,,,davidb,264706,Hombre,2025-05-06_09h39.12.361,tarea_iceberg,2023.2.3,60.155550215669095,2025-05-06 09h40.01.248126 +0200,
3,0.6,0.05,,,,,,,,,,,,,,,,,,,,,,,,,,,,,0,6,6,6,,,,,,,,,,,,,,,,,,,,,,,,,,,,,,,,,191.03436730010435,,,,,,,,,,,,,,,,,,,,,,,,,,,,,,,,,,,,,,,,,,,,,,,,,,,,190.93882709997706,190.94609119999222,None,,,,,,,,,,,,,,,,,,,,,,,,,,,,,,,,,,,,,,,,,,davidb,264706,Hombre,2025-05-06_09h39.12.361,tarea_iceberg,2023.2.3,60.155550215669095,2025-05-06 09h40.01.248126 +0200,
7,-0.4,0.05,,,,,,,,,,,,,,,,,,,,,,,,,,,,,0,7,7,7,,,,,,,,,,,,,,,,,,,,,,,,,,,,,,,,,191.03436730010435,,,,,,,,,,,,,,,,,,,,,,,,,,,,,,,,,,,,,,,,,,,,,,,,,,,,190.94642359996215,190.95346920005977,None,,,,,,,,,,,,,,,,,,,,,,,,,,,,,,,,,,,,,,,,,,davidb,264706,Hombre,2025-05-06_09h39.12.361,tarea_iceberg,2023.2.3,60.155550215669095,2025-05-06 09h40.01.248126 +0200,
3,0,0.05,,,,,,,,,,,,,,,,,,,,,,,,,,,,,0,8,8,8,,,,,,,,,,,,,,,,,,,,,,,,,,,,,,,,,191.03436730010435,,,,,,,,,,,,,,,,,,,,,,,,,,,,,,,,,,,,,,,,,,,,,,,,,,,,190.95376290008426,190.96104969992302,None,,,,,,,,,,,,,,,,,,,,,,,,,,,,,,,,,,,,,,,,,,davidb,264706,Hombre,2025-05-06_09h39.12.361,tarea_iceberg,2023.2.3,60.155550215669095,2025-05-06 09h40.01.248126 +0200,
10,0.2,0.05,,,,,,,,,,,,,,,,,,,,,,,,,,,,,0,9,9,9,,,,,,,,,,,,,,,,,,,,,,,,,,,,,,,,,191.03436730010435,,,,,,,,,,,,,,,,,,,,,,,,,,,,,,,,,,,,,,,,,,,,,,,,,,,,190.96136020007543,190.96843280014582,None,,,,,,,,,,,,,,,,,,,,,,,,,,,,,,,,,,,,,,,,,,davidb,264706,Hombre,2025-05-06_09h39.12.361,tarea_iceberg,2023.2.3,60.155550215669095,2025-05-06 09h40.01.248126 +0200,
10,-0.3,0.05,,,,,,,,,,,,,,,,,,,,,,,,,,,,,,,,,0,0,0,0,,,,,,,,,,,,,,,,,,,,,,,,,,,,,194.71643420006149,,,,,,,,,,,,,,,,,,,,,,,,,,,,,,,,,,,,,,,,,,,,,,,,,,,,,,,191.02082159998827,191.03436730010435,193.02545670000836,193.04343530000187,193.05050110002048,None,,,,,,,,,,,,,,,,,,,,,,,,,,,,,,,,,,,,davidb,264706,Hombre,2025-05-06_09h39.12.361,tarea_iceberg,2023.2.3,60.155550215669095,2025-05-06 09h40.01.248126 +0200,
5,-0.7,0.05,,,,,,,,,,,,,,,,,,,,,,,,,,,,,,,,,0,1,1,1,,,,,,,,,,,,,,,,,,,,,,,,,,,,,194.71643420006149,,,,,,,,,,,,,,,,,,,,,,,,,,,,,,,,,,,,,,,,,,,,,,,,,,,,,,,,,,193.0508234000299,193.05645929998718,None,,,,,,,,,,,,,,,,,,,,,,,,,,,,,,,,,,,,davidb,264706,Hombre,2025-05-06_09h39.12.361,tarea_iceberg,2023.2.3,60.155550215669095,2025-05-06 09h40.01.248126 +0200,
3,-0.1,0.05,,,,,,,,,,,,,,,,,,,,,,,,,,,,,,,,,0,2,2,2,,,,,,,,,,,,,,,,,,,,,,,,,,,,,194.71643420006149,,,,,,,,,,,,,,,,,,,,,,,,,,,,,,,,,,,,,,,,,,,,,,,,,,,,,,,,,,193.05672070011497,193.06241829995997,None,,,,,,,,,,,,,,,,,,,,,,,,,,,,,,,,,,,,davidb,264706,Hombre,2025-05-06_09h39.12.361,tarea_iceberg,2023.2.3,60.155550215669095,2025-05-06 09h40.01.248126 +0200,
3,0,0.05,,,,,,,,,,,,,,,,,,,,,,,,,,,,,,,,,0,3,3,3,,,,,,,,,,,,,,,,,,,,,,,,,,,,,194.71643420006149,,,,,,,,,,,,,,,,,,,,,,,,,,,,,,,,,,,,,,,,,,,,,,,,,,,,,,,,,,193.0626783000771,193.06819170014933,None,,,,,,,,,,,,,,,,,,,,,,,,,,,,,,,,,,,,davidb,264706,Hombre,2025-05-06_09h39.12.361,tarea_iceberg,2023.2.3,60.155550215669095,2025-05-06 09h40.01.248126 +0200,
13,0.6,0.05,,,,,,,,,,,,,,,,,,,,,,,,,,,,,,,,,0,4,4,4,,,,,,,,,,,,,,,,,,,,,,,,,,,,,194.71643420006149,,,,,,,,,,,,,,,,,,,,,,,,,,,,,,,,,,,,,,,,,,,,,,,,,,,,,,,,,,193.06843689992093,193.07391520007513,None,,,,,,,,,,,,,,,,,,,,,,,,,,,,,,,,,,,,davidb,264706,Hombre,2025-05-06_09h39.12.361,tarea_iceberg,2023.2.3,60.155550215669095,2025-05-06 09h40.01.248126 +0200,
13,0.5,0.05,,,,,,,,,,,,,,,,,,,,,,,,,,,,,,,,,0,5,5,5,,,,,,,,,,,,,,,,,,,,,,,,,,,,,194.71643420006149,,,,,,,,,,,,,,,,,,,,,,,,,,,,,,,,,,,,,,,,,,,,,,,,,,,,,,,,,,193.07417650008574,193.07980239996687,None,,,,,,,,,,,,,,,,,,,,,,,,,,,,,,,,,,,,davidb,264706,Hombre,2025-05-06_09h39.12.361,tarea_iceberg,2023.2.3,60.155550215669095,2025-05-06 09h40.01.248126 +0200,
6,0.3,0.05,,,,,,,,,,,,,,,,,,,,,,,,,,,,,,,,,0,6,6,6,,,,,,,,,,,,,,,,,,,,,,,,,,,,,194.71643420006149,,,,,,,,,,,,,,,,,,,,,,,,,,,,,,,,,,,,,,,,,,,,,,,,,,,,,,,,,,193.08008240000345,193.08544649998657,None,,,,,,,,,,,,,,,,,,,,,,,,,,,,,,,,,,,,davidb,264706,Hombre,2025-05-06_09h39.12.361,tarea_iceberg,2023.2.3,60.155550215669095,2025-05-06 09h40.01.248126 +0200,
13,-0.6,0.05,,,,,,,,,,,,,,,,,,,,,,,,,,,,,,,,,0,7,7,7,,,,,,,,,,,,,,,,,,,,,,,,,,,,,194.71643420006149,,,,,,,,,,,,,,,,,,,,,,,,,,,,,,,,,,,,,,,,,,,,,,,,,,,,,,,,,,193.08572049997747,193.0916969999671,None,,,,,,,,,,,,,,,,,,,,,,,,,,,,,,,,,,,,davidb,264706,Hombre,2025-05-06_09h39.12.361,tarea_iceberg,2023.2.3,60.155550215669095,2025-05-06 09h40.01.248126 +0200,
10,0.2,0.05,,,,,,,,,,,,,,,,,,,,,,,,,,,,,,,,,0,8,8,8,,,,,,,,,,,,,,,,,,,,,,,,,,,,,194.71643420006149,,,,,,,,,,,,,,,,,,,,,,,,,,,,,,,,,,,,,,,,,,,,,,,,,,,,,,,,,,193.09199049999006,193.0977145000361,None,,,,,,,,,,,,,,,,,,,,,,,,,,,,,,,,,,,,davidb,264706,Hombre,2025-05-06_09h39.12.361,tarea_iceberg,2023.2.3,60.155550215669095,2025-05-06 09h40.01.248126 +0200,
13,-0.4,0.05,,,,,,,,,,,,,,,,,,,,,,,,,,,,,,,,,0,9,9,9,,,,,,,,,,,,,,,,,,,,,,,,,,,,,194.71643420006149,,,,,,,,,,,,,,,,,,,,,,,,,,,,,,,,,,,,,,,,,,,,,,,,,,,,,,,,,,193.09798220009543,193.1031550001353,None,,,,,,,,,,,,,,,,,,,,,,,,,,,,,,,,,,,,davidb,264706,Hombre,2025-05-06_09h39.12.361,tarea_iceberg,2023.2.3,60.155550215669095,2025-05-06 09h40.01.248126 +0200,
10,-0.3,0.05,,,,,,,,,,,,,,,,,,,,,,,,,,,,,,,,,,,,,0,0,0,0,,,,,,,,,,,,,,,,,,,,,,,,,194.71643420006149,,,,,,,,,,,,,,,,,,,,,,,,,,,,,,,,,,,,,,,,,,,,,,,,,,,,,,,,,,,,,193.1218826000113,193.12813800014555,None,,,,,,,,,,,,,,,,,,,,,,,,,,,,,,,,,davidb,264706,Hombre,2025-05-06_09h39.12.361,tarea_iceberg,2023.2.3,60.155550215669095,2025-05-06 09h40.01.248126 +0200,
5,-0.7,0.05,,,,,,,,,,,,,,,,,,,,,,,,,,,,,,,,,,,,,0,1,1,1,,,,,,,,,,,,,,,,,,,,,,,,,194.71643420006149,,,,,,,,,,,,,,,,,,,,,,,,,,,,,,,,,,,,,,,,,,,,,,,,,,,,,,,,,,,,,193.12847630004399,193.1341584001202,None,,,,,,,,,,,,,,,,,,,,,,,,,,,,,,,,,davidb,264706,Hombre,2025-05-06_09h39.12.361,tarea_iceberg,2023.2.3,60.155550215669095,2025-05-06 09h40.01.248126 +0200,
3,-0.1,0.05,,,,,,,,,,,,,,,,,,,,,,,,,,,,,,,,,,,,,0,2,2,2,,,,,,,,,,,,,,,,,,,,,,,,,194.71643420006149,,,,,,,,,,,,,,,,,,,,,,,,,,,,,,,,,,,,,,,,,,,,,,,,,,,,,,,,,,,,,193.13440040010028,193.14033120009117,None,,,,,,,,,,,,,,,,,,,,,,,,,,,,,,,,,davidb,264706,Hombre,2025-05-06_09h39.12.361,tarea_iceberg,2023.2.3,60.155550215669095,2025-05-06 09h40.01.248126 +0200,
3,0,0.05,,,,,,,,,,,,,,,,,,,,,,,,,,,,,,,,,,,,,0,3,3,3,,,,,,,,,,,,,,,,,,,,,,,,,194.71643420006149,,,,,,,,,,,,,,,,,,,,,,,,,,,,,,,,,,,,,,,,,,,,,,,,,,,,,,,,,,,,,193.1406424001325,193.14668600005098,None,,,,,,,,,,,,,,,,,,,,,,,,,,,,,,,,,davidb,264706,Hombre,2025-05-06_09h39.12.361,tarea_iceberg,2023.2.3,60.155550215669095,2025-05-06 09h40.01.248126 +0200,
13,0.6,0.05,,,,,,,,,,,,,,,,,,,,,,,,,,,,,,,,,,,,,0,4,4,4,,,,,,,,,,,,,,,,,,,,,,,,,194.71643420006149,,,,,,,,,,,,,,,,,,,,,,,,,,,,,,,,,,,,,,,,,,,,,,,,,,,,,,,,,,,,,193.1469434001483,193.15261920006014,None,,,,,,,,,,,,,,,,,,,,,,,,,,,,,,,,,davidb,264706,Hombre,2025-05-06_09h39.12.361,tarea_iceberg,2023.2.3,60.155550215669095,2025-05-06 09h40.01.248126 +0200,
13,0.5,0.05,,,,,,,,,,,,,,,,,,,,,,,,,,,,,,,,,,,,,0,5,5,5,,,,,,,,,,,,,,,,,,,,,,,,,194.71643420006149,,,,,,,,,,,,,,,,,,,,,,,,,,,,,,,,,,,,,,,,,,,,,,,,,,,,,,,,,,,,,193.15290540014394,193.15881719999015,None,,,,,,,,,,,,,,,,,,,,,,,,,,,,,,,,,davidb,264706,Hombre,2025-05-06_09h39.12.361,tarea_iceberg,2023.2.3,60.155550215669095,2025-05-06 09h40.01.248126 +0200,
6,0.3,0.05,,,,,,,,,,,,,,,,,,,,,,,,,,,,,,,,,,,,,0,6,6,6,,,,,,,,,,,,,,,,,,,,,,,,,194.71643420006149,,,,,,,,,,,,,,,,,,,,,,,,,,,,,,,,,,,,,,,,,,,,,,,,,,,,,,,,,,,,,193.15909640002064,193.1649084999226,None,,,,,,,,,,,,,,,,,,,,,,,,,,,,,,,,,davidb,264706,Hombre,2025-05-06_09h39.12.361,tarea_iceberg,2023.2.3,60.155550215669095,2025-05-06 09h40.01.248126 +0200,
13,-0.6,0.05,,,,,,,,,,,,,,,,,,,,,,,,,,,,,,,,,,,,,0,7,7,7,,,,,,,,,,,,,,,,,,,,,,,,,194.71643420006149,,,,,,,,,,,,,,,,,,,,,,,,,,,,,,,,,,,,,,,,,,,,,,,,,,,,,,,,,,,,,193.16519180010073,193.17087409994565,None,,,,,,,,,,,,,,,,,,,,,,,,,,,,,,,,,davidb,264706,Hombre,2025-05-06_09h39.12.361,tarea_iceberg,2023.2.3,60.155550215669095,2025-05-06 09h40.01.248126 +0200,
10,0.2,0.05,,,,,,,,,,,,,,,,,,,,,,,,,,,,,,,,,,,,,0,8,8,8,,,,,,,,,,,,,,,,,,,,,,,,,194.71643420006149,,,,,,,,,,,,,,,,,,,,,,,,,,,,,,,,,,,,,,,,,,,,,,,,,,,,,,,,,,,,,193.171136100078,193.1770190000534,None,,,,,,,,,,,,,,,,,,,,,,,,,,,,,,,,,davidb,264706,Hombre,2025-05-06_09h39.12.361,tarea_iceberg,2023.2.3,60.155550215669095,2025-05-06 09h40.01.248126 +0200,
13,-0.4,0.05,,,,,,,,,,,,,,,,,,,,,,,,,,,,,,,,,,,,,0,9,9,9,,,,,,,,,,,,,,,,,,,,,,,,,194.71643420006149,,,,,,,,,,,,,,,,,,,,,,,,,,,,,,,,,,,,,,,,,,,,,,,,,,,,,,,,,,,,,193.1773145000916,193.1830996000208,None,,,,,,,,,,,,,,,,,,,,,,,,,,,,,,,,,davidb,264706,Hombre,2025-05-06_09h39.12.361,tarea_iceberg,2023.2.3,60.155550215669095,2025-05-06 09h40.01.248126 +0200,
10,-0.3,0.05,,,,,,,,,,,,,,,,,,,,,,,,,,,,,,,,,,,,,,,,,0,0,0,0,,,,,,,,,,,,,,,,,,,,,194.71643420006149,,,,,,,,,,,,,,,,,,,,,,,,,,,,,,,,,,,,,,,,,,,,,,,,,,,,,,,,,,,,,,,,193.23039659997448,193.23724570008926,None,,,,,,,,,,,,,,,,,,,,,,,,,,,,,,davidb,264706,Hombre,2025-05-06_09h39.12.361,tarea_iceberg,2023.2.3,60.155550215669095,2025-05-06 09h40.01.248126 +0200,
5,-0.7,0.05,,,,,,,,,,,,,,,,,,,,,,,,,,,,,,,,,,,,,,,,,0,1,1,1,,,,,,,,,,,,,,,,,,,,,194.71643420006149,,,,,,,,,,,,,,,,,,,,,,,,,,,,,,,,,,,,,,,,,,,,,,,,,,,,,,,,,,,,,,,,193.2375797999557,193.2448915001005,None,,,,,,,,,,,,,,,,,,,,,,,,,,,,,,davidb,264706,Hombre,2025-05-06_09h39.12.361,tarea_iceberg,2023.2.3,60.155550215669095,2025-05-06 09h40.01.248126 +0200,
3,-0.1,0.05,,,,,,,,,,,,,,,,,,,,,,,,,,,,,,,,,,,,,,,,,0,2,2,2,,,,,,,,,,,,,,,,,,,,,194.71643420006149,,,,,,,,,,,,,,,,,,,,,,,,,,,,,,,,,,,,,,,,,,,,,,,,,,,,,,,,,,,,,,,,193.2452714999672,193.25202460004948,None,,,,,,,,,,,,,,,,,,,,,,,,,,,,,,davidb,264706,Hombre,2025-05-06_09h39.12.361,tarea_iceberg,2023.2.3,60.155550215669095,2025-05-06 09h40.01.248126 +0200,
3,0,0.05,,,,,,,,,,,,,,,,,,,,,,,,,,,,,,,,,,,,,,,,,0,3,3,3,,,,,,,,,,,,,,,,,,,,,194.71643420006149,,,,,,,,,,,,,,,,,,,,,,,,,,,,,,,,,,,,,,,,,,,,,,,,,,,,,,,,,,,,,,,,193.25232219998725,193.25913959997706,None,,,,,,,,,,,,,,,,,,,,,,,,,,,,,,davidb,264706,Hombre,2025-05-06_09h39.12.361,tarea_iceberg,2023.2.3,60.155550215669095,2025-05-06 09h40.01.248126 +0200,
13,0.6,0.05,,,,,,,,,,,,,,,,,,,,,,,,,,,,,,,,,,,,,,,,,0,4,4,4,,,,,,,,,,,,,,,,,,,,,194.71643420006149,,,,,,,,,,,,,,,,,,,,,,,,,,,,,,,,,,,,,,,,,,,,,,,,,,,,,,,,,,,,,,,,193.25944259995595,193.26586499996483,None,,,,,,,,,,,,,,,,,,,,,,,,,,,,,,davidb,264706,Hombre,2025-05-06_09h39.12.361,tarea_iceberg,2023.2.3,60.155550215669095,2025-05-06 09h40.01.248126 +0200,
13,0.5,0.05,,,,,,,,,,,,,,,,,,,,,,,,,,,,,,,,,,,,,,,,,0,5,5,5,,,,,,,,,,,,,,,,,,,,,194.71643420006149,,,,,,,,,,,,,,,,,,,,,,,,,,,,,,,,,,,,,,,,,,,,,,,,,,,,,,,,,,,,,,,,193.26613770006225,193.2725651001092,None,,,,,,,,,,,,,,,,,,,,,,,,,,,,,,davidb,264706,Hombre,2025-05-06_09h39.12.361,tarea_iceberg,2023.2.3,60.155550215669095,2025-05-06 09h40.01.248126 +0200,
6,0.3,0.05,,,,,,,,,,,,,,,,,,,,,,,,,,,,,,,,,,,,,,,,,0,6,6,6,,,,,,,,,,,,,,,,,,,,,194.71643420006149,,,,,,,,,,,,,,,,,,,,,,,,,,,,,,,,,,,,,,,,,,,,,,,,,,,,,,,,,,,,,,,,193.2728828000836,193.2797000000719,None,,,,,,,,,,,,,,,,,,,,,,,,,,,,,,davidb,264706,Hombre,2025-05-06_09h39.12.361,tarea_iceberg,2023.2.3,60.155550215669095,2025-05-06 09h40.01.248126 +0200,
13,-0.6,0.05,,,,,,,,,,,,,,,,,,,,,,,,,,,,,,,,,,,,,,,,,0,7,7,7,,,,,,,,,,,,,,,,,,,,,194.71643420006149,,,,,,,,,,,,,,,,,,,,,,,,,,,,,,,,,,,,,,,,,,,,,,,,,,,,,,,,,,,,,,,,193.2800044999458,193.28657780005597,None,,,,,,,,,,,,,,,,,,,,,,,,,,,,,,davidb,264706,Hombre,2025-05-06_09h39.12.361,tarea_iceberg,2023.2.3,60.155550215669095,2025-05-06 09h40.01.248126 +0200,
10,0.2,0.05,,,,,,,,,,,,,,,,,,,,,,,,,,,,,,,,,,,,,,,,,0,8,8,8,,,,,,,,,,,,,,,,,,,,,194.71643420006149,,,,,,,,,,,,,,,,,,,,,,,,,,,,,,,,,,,,,,,,,,,,,,,,,,,,,,,,,,,,,,,,193.28684170008637,193.2941920000594,None,,,,,,,,,,,,,,,,,,,,,,,,,,,,,,davidb,264706,Hombre,2025-05-06_09h39.12.361,tarea_iceberg,2023.2.3,60.155550215669095,2025-05-06 09h40.01.248126 +0200,
13,-0.4,0.05,,,,,,,,,,,,,,,,,,,,,,,,,,,,,,,,,,,,,,,,,0,9,9,9,,,,,,,,,,,,,,,,,,,,,194.71643420006149,,,,,,,,,,,,,,,,,,,,,,,,,,,,,,,,,,,,,,,,,,,,,,,,,,,,,,,,,,,,,,,,193.29446809994988,193.301830700133,None,,,,,,,,,,,,,,,,,,,,,,,,,,,,,,davidb,264706,Hombre,2025-05-06_09h39.12.361,tarea_iceberg,2023.2.3,60.155550215669095,2025-05-06 09h40.01.248126 +0200,
10,-0.3,0.05,,,,,,,,,,,,,,,,,,,,,,,,,,,,,,,,,,,,,,,,,,,,,0,0,0,0,,,,,,,,,,,,,,,,,194.71643420006149,,,,,,,,,,,,,,,,,,,,,,,,,,,,,,,,,,,,,,,,,,,,,,,,,,,,,,,,,,,,,,,,,,,193.35029690014198,203.353654100094,203.353654100094,203.74488839996047,space,0.36734390002675354,None,,,,,,,,,,,,,,,,,,,,,,,davidb,264706,Hombre,2025-05-06_09h39.12.361,tarea_iceberg,2023.2.3,60.155550215669095,2025-05-06 09h40.01.248126 +0200,
5,-0.7,0.05,,,,,,,,,,,,,,,,,,,,,,,,,,,,,,,,,,,,,,,,,,,,,0,1,1,1,,,,,,,,,,,,,,,,,203.78608210012317,,,,,,,,,,,,,,,,,,,,,,,,,,,,,,,,,,,,,,,,,,,,,,,,,,,,,,,,,,,,,,,,,,,203.74665890005417,208.77874259999953,208.77874259999953,209.17519560013898,space,0.36561229988001287,None,,,,,,,,,,,,,,,,,,,,,,,davidb,264706,Hombre,2025-05-06_09h39.12.361,tarea_iceberg,2023.2.3,60.155550215669095,2025-05-06 09h40.01.248126 +0200,
3,-0.1,0.05,,,,,,,,,,,,,,,,,,,,,,,,,,,,,,,,,,,,,,,,,,,,,0,2,2,2,,,,,,,,,,,,,,,,,209.22832019999623,,,,,,,,,,,,,,,,,,,,,,,,,,,,,,,,,,,,,,,,,,,,,,,,,,,,,,,,,,,,,,,,,,,209.17602850007825,212.19699879991822,212.19699879991822,212.73991669993848,space,0.5241091998759657,None,,,,,,,,,,,,,,,,,,,,,,,davidb,264706,Hombre,2025-05-06_09h39.12.361,tarea_iceberg,2023.2.3,60.155550215669095,2025-05-06 09h40.01.248126 +0200,
3,0,0.05,,,,,,,,,,,,,,,,,,,,,,,,,,,,,,,,,,,,,,,,,,,,,0,3,3,3,,,,,,,,,,,,,,,,,212.76216410007328,,,,,,,,,,,,,,,,,,,,,,,,,,,,,,,,,,,,,,,,,,,,,,,,,,,,,,,,,,,,,,,,,,,212.7407339999918,215.7606007999275,215.7606007999275,216.16938799992204,space,0.3927211998961866,None,,,,,,,,,,,,,,,,,,,,,,,davidb,264706,Hombre,2025-05-06_09h39.12.361,tarea_iceberg,2023.2.3,60.155550215669095,2025-05-06 09h40.01.248126 +0200,
13,0.6,0.05,,,,,,,,,,,,,,,,,,,,,,,,,,,,,,,,,,,,,,,,,,,,,0,4,4,4,,,,,,,,,,,,,,,,,216.19013010011986,,,,,,,,,,,,,,,,,,,,,,,,,,,,,,,,,,,,,,,,,,,,,,,,,,,,,,,,,,,,,,,,,,,216.1702761000488,229.17795359995216,229.17795359995216,229.67469580005854,space,0.487070299917832,None,,,,,,,,,,,,,,,,,,,,,,,davidb,264706,Hombre,2025-05-06_09h39.12.361,tarea_iceberg,2023.2.3,60.155550215669095,2025-05-06 09h40.01.248126 +0200,
13,0.5,0.05,,,,,,,,,,,,,,,,,,,,,,,,,,,,,,,,,,,,,,,,,,,,,0,5,5,5,,,,,,,,,,,,,,,,,229.72157680010423,,,,,,,,,,,,,,,,,,,,,,,,,,,,,,,,,,,,,,,,,,,,,,,,,,,,,,,,,,,,,,,,,,,229.6753438001033,242.68266199994832,242.68266199994832,243.16596220014617,space,0.46913450001738966,None,,,,,,,,,,,,,,,,,,,,,,,davidb,264706,Hombre,2025-05-06_09h39.12.361,tarea_iceberg,2023.2.3,60.155550215669095,2025-05-06 09h40.01.248126 +0200,
6,0.3,0.05,,,,,,,,,,,,,,,,,,,,,,,,,,,,,,,,,,,,,,,,,,,,,0,6,6,6,,,,,,,,,,,,,,,,,243.18918270012364,,,,,,,,,,,,,,,,,,,,,,,,,,,,,,,,,,,,,,,,,,,,,,,,,,,,,,,,,,,,,,,,,,,243.16681700013578,249.17836040002294,249.17836040002294,249.66639040014707,space,0.46152300015091896,None,,,,,,,,,,,,,,,,,,,,,,,davidb,264706,Hombre,2025-05-06_09h39.12.361,tarea_iceberg,2023.2.3,60.155550215669095,2025-05-06 09h40.01.248126 +0200,
13,-0.6,0.05,,,,,,,,,,,,,,,,,,,,,,,,,,,,,,,,,,,,,,,,,,,,,0,7,7,7,,,,,,,,,,,,,,,,,249.68467839993536,,,,,,,,,,,,,,,,,,,,,,,,,,,,,,,,,,,,,,,,,,,,,,,,,,,,,,,,,,,,,,,,,,,249.66705840011127,262.6820706001017,262.6820706001017,263.18493300001137,space,0.47007509996183217,None,,,,,,,,,,,,,,,,,,,,,,,davidb,264706,Hombre,2025-05-06_09h39.12.361,tarea_iceberg,2023.2.3,60.155550215669095,2025-05-06 09h40.01.248126 +0200,
10,0.2,0.05,,,,,,,,,,,,,,,,,,,,,,,,,,,,,,,,,,,,,,,,,,,,,0,8,8,8,,,,,,,,,,,,,,,,,263.23244039993733,,,,,,,,,,,,,,,,,,,,,,,,,,,,,,,,,,,,,,,,,,,,,,,,,,,,,,,,,,,,,,,,,,,263.1862635000143,273.19140280014835,273.19140280014835,273.6442553999368,space,0.43328620004467666,None,,,,,,,,,,,,,,,,,,,,,,,davidb,264706,Hombre,2025-05-06_09h39.12.361,tarea_iceberg,2023.2.3,60.155550215669095,2025-05-06 09h40.01.248126 +0200,
13,-0.4,0.05,,,,,,,,,,,,,,,,,,,,,,,,,,,,,,,,,,,,,,,,,,,,,0,9,9,9,,,,,,,,,,,,,,,,,273.69081229995936,,,,,,,,,,,,,,,,,,,,,,,,,,,,,,,,,,,,,,,,,,,,,,,,,,,,,,,,,,,,,,,,,,,273.64535360015,286.65303730010055,286.65303730010055,287.16872210009024,space,0.5071277001406997,None,,,,,,,,,,,,,,,,,,,,,,,davidb,264706,Hombre,2025-05-06_09h39.12.361,tarea_iceberg,2023.2.3,60.155550215669095,2025-05-06 09h40.01.248126 +0200,
9,-0.4,0.05,,,,,,,,,,,,,,,,,,,,,,,,,,,,,,,,,,,,,,,,,,,,,,,,,0,0,0,0,,,,,,,,,,,,,290.2300482999999,,,,,,,,,,,,,,,,,,,,,,,,,,,,,,,,,,,,,,,,,,,,,,,,,,,,,,,,,,,,,,,,,,,,,,,,,,287.2308022000361,287.24129889998585,289.23123940010555,289.24808140005916,298.2456177000422,298.2456177000422,298.5928338000085,space,0.3227857002057135,None,,,,,,,,,,,,,davidb,264706,Hombre,2025-05-06_09h39.12.361,tarea_iceberg,2023.2.3,60.155550215669095,2025-05-06 09h40.01.248126 +0200,
10,0.2,0.05,,,,,,,,,,,,,,,,,,,,,,,,,,,,,,,,,,,,,,,,,,,,,,,,,0,1,1,1,,,,,,,,,,,,,298.6096280000638,,,,,,,,,,,,,,,,,,,,,,,,,,,,,,,,,,,,,,,,,,,,,,,,,,,,,,,,,,,,,,,,,,,,,,,,,,,,,298.5936489000451,308.6051336999517,308.6051336999517,308.9645527000539,space,0.3398104999214411,None,,,,,,,,,,,,,davidb,264706,Hombre,2025-05-06_09h39.12.361,tarea_iceberg,2023.2.3,60.155550215669095,2025-05-06 09h40.01.248126 +0200,
14,-0.4,0.05,,,,,,,,,,,,,,,,,,,,,,,,,,,,,,,,,,,,,,,,,,,,,,,,,0,2,2,2,,,,,,,,,,,,,308.9858808000572,,,,,,,,,,,,,,,,,,,,,,,,,,,,,,,,,,,,,,,,,,,,,,,,,,,,,,,,,,,,,,,,,,,,,,,,,,,,,308.9653042999562,322.9814943000674,322.9814943000674,323.3613833000418,space,0.34622760000638664,None,,,,,,,,,,,,,davidb,264706,Hombre,2025-05-06_09h39.12.361,tarea_iceberg,2023.2.3,60.155550215669095,2025-05-06 09h40.01.248126 +0200,
6,-0.5,0.05,,,,,,,,,,,,,,,,,,,,,,,,,,,,,,,,,,,,,,,,,,,,,,,,,0,3,3,3,,,,,,,,,,,,,323.3776438999921,,,,,,,,,,,,,,,,,,,,,,,,,,,,,,,,,,,,,,,,,,,,,,,,,,,,,,,,,,,,,,,,,,,,,,,,,,,,,323.36178439995274,329.3562749000266,329.3562749000266,329.67042859992944,space,0.3006972000002861,None,,,,,,,,,,,,,davidb,264706,Hombre,2025-05-06_09h39.12.361,tarea_iceberg,2023.2.3,60.155550215669095,2025-05-06 09h40.01.248126 +0200,
7,0.5,0.05,,,,,,,,,,,,,,,,,,,,,,,,,,,,,,,,,,,,,,,,,,,,,,,,,0,4,4,4,,,,,,,,,,,,,329.7077132000122,,,,,,,,,,,,,,,,,,,,,,,,,,,,,,,,,,,,,,,,,,,,,,,,,,,,,,,,,,,,,,,,,,,,,,,,,,,,,329.6710568999406,336.6807260001078,336.6807260001078,336.9961517001502,space,0.28742729988880455,None,,,,,,,,,,,,,davidb,264706,Hombre,2025-05-06_09h39.12.361,tarea_iceberg,2023.2.3,60.155550215669095,2025-05-06 09h40.01.248126 +0200,
10,-0.4,0.05,,,,,,,,,,,,,,,,,,,,,,,,,,,,,,,,,,,,,,,,,,,,,,,,,0,5,5,5,,,,,,,,,,,,,337.04184830002487,,,,,,,,,,,,,,,,,,,,,,,,,,,,,,,,,,,,,,,,,,,,,,,,,,,,,,,,,,,,,,,,,,,,,,,,,,,,,336.997024100041,347.01454240013845,347.01454240013845,347.37331559997983,space,0.3538912001531571,None,,,,,,,,,,,,,davidb,264706,Hombre,2025-05-06_09h39.12.361,tarea_iceberg,2023.2.3,60.155550215669095,2025-05-06 09h40.01.248126 +0200,
12,0,0.05,,,,,,,,,,,,,,,,,,,,,,,,,,,,,,,,,,,,,,,,,,,,,,,,,0,6,6,6,,,,,,,,,,,,,347.4084557001479,,,,,,,,,,,,,,,,,,,,,,,,,,,,,,,,,,,,,,,,,,,,,,,,,,,,,,,,,,,,,,,,,,,,,,,,,,,,,347.37378540006466,359.3874097999651,359.3874097999651,359.7066774000414,space,0.31695380015298724,None,,,,,,,,,,,,,davidb,264706,Hombre,2025-05-06_09h39.12.361,tarea_iceberg,2023.2.3,60.155550215669095,2025-05-06 09h40.01.248126 +0200,
9,0.4,0.05,,,,,,,,,,,,,,,,,,,,,,,,,,,,,,,,,,,,,,,,,,,,,,,,,0,7,7,7,,,,,,,,,,,,,359.7327022999525,,,,,,,,,,,,,,,,,,,,,,,,,,,,,,,,,,,,,,,,,,,,,,,,,,,,,,,,,,,,,,,,,,,,,,,,,,,,,359.70698629994877,368.7134608000051,368.7134608000051,369.0666533000767,space,0.3339058000128716,None,,,,,,,,,,,,,davidb,264706,Hombre,2025-05-06_09h39.12.361,tarea_iceberg,2023.2.3,60.155550215669095,2025-05-06 09h40.01.248126 +0200,
4,-0.3,0.05,,,,,,,,,,,,,,,,,,,,,,,,,,,,,,,,,,,,,,,,,,,,,,,,,0,8,8,8,,,,,,,,,,,,,369.08220830000937,,,,,,,,,,,,,,,,,,,,,,,,,,,,,,,,,,,,,,,,,,,,,,,,,,,,,,,,,,,,,,,,,,,,,,,,,,,,,369.0670247999951,373.07797170011327,373.07797170011327,373.51938290009275,space,0.4177643000148237,None,,,,,,,,,,,,,davidb,264706,Hombre,2025-05-06_09h39.12.361,tarea_iceberg,2023.2.3,60.155550215669095,2025-05-06 09h40.01.248126 +0200,
9,0.3,0.05,,,,,,,,,,,,,,,,,,,,,,,,,,,,,,,,,,,,,,,,,,,,,,,,,0,9,9,9,,,,,,,,,,,,,373.5342357000336,,,,,,,,,,,,,,,,,,,,,,,,,,,,,,,,,,,,,,,,,,,,,,,,,,,,,,,,,,,,,,,,,,,,,,,,,,,,,373.5199643999804,382.52215410000645,382.52215410000645,382.84232380008325,space,0.310928100021556,None,,,,,,,,,,,,,davidb,264706,Hombre,2025-05-06_09h39.12.361,tarea_iceberg,2023.2.3,60.155550215669095,2025-05-06 09h40.01.248126 +0200,
9,-0.4,0.05,,,,,,,,,,,,,,,,,,,,,,,,,,,,,,,,,,,,,,,,,,,,,,,,,,,,,0,0,0,0,,,,,,,,,383.18271189997904,,,,,,,,,,,,,,,,,,,,,,,,,,,,,,,,,,,,,,,,,,,,,,,,,,,,,,,,,,,,,,,,,,,,,,,,,,,,,,,,,,,,382.8598905999679,382.8671894001309,None,,,,,,,,,,davidb,264706,Hombre,2025-05-06_09h39.12.361,tarea_iceberg,2023.2.3,60.155550215669095,2025-05-06 09h40.01.248126 +0200,
10,0.2,0.05,,,,,,,,,,,,,,,,,,,,,,,,,,,,,,,,,,,,,,,,,,,,,,,,,,,,,0,1,1,1,,,,,,,,,383.18271189997904,,,,,,,,,,,,,,,,,,,,,,,,,,,,,,,,,,,,,,,,,,,,,,,,,,,,,,,,,,,,,,,,,,,,,,,,,,,,,,,,,,,,382.8675289999228,382.8734588001389,None,,,,,,,,,,davidb,264706,Hombre,2025-05-06_09h39.12.361,tarea_iceberg,2023.2.3,60.155550215669095,2025-05-06 09h40.01.248126 +0200,
14,-0.4,0.05,,,,,,,,,,,,,,,,,,,,,,,,,,,,,,,,,,,,,,,,,,,,,,,,,,,,,0,2,2,2,,,,,,,,,383.18271189997904,,,,,,,,,,,,,,,,,,,,,,,,,,,,,,,,,,,,,,,,,,,,,,,,,,,,,,,,,,,,,,,,,,,,,,,,,,,,,,,,,,,,382.8737300999928,382.87963719991967,None,,,,,,,,,,davidb,264706,Hombre,2025-05-06_09h39.12.361,tarea_iceberg,2023.2.3,60.155550215669095,2025-05-06 09h40.01.248126 +0200,
6,-0.5,0.05,,,,,,,,,,,,,,,,,,,,,,,,,,,,,,,,,,,,,,,,,,,,,,,,,,,,,0,3,3,3,,,,,,,,,383.18271189997904,,,,,,,,,,,,,,,,,,,,,,,,,,,,,,,,,,,,,,,,,,,,,,,,,,,,,,,,,,,,,,,,,,,,,,,,,,,,,,,,,,,,382.87993169995025,382.8860369999893,None,,,,,,,,,,davidb,264706,Hombre,2025-05-06_09h39.12.361,tarea_iceberg,2023.2.3,60.155550215669095,2025-05-06 09h40.01.248126 +0200,
7,0.5,0.05,,,,,,,,,,,,,,,,,,,,,,,,,,,,,,,,,,,,,,,,,,,,,,,,,,,,,0,4,4,4,,,,,,,,,383.18271189997904,,,,,,,,,,,,,,,,,,,,,,,,,,,,,,,,,,,,,,,,,,,,,,,,,,,,,,,,,,,,,,,,,,,,,,,,,,,,,,,,,,,,382.88633810007013,382.8921940000728,None,,,,,,,,,,davidb,264706,Hombre,2025-05-06_09h39.12.361,tarea_iceberg,2023.2.3,60.155550215669095,2025-05-06 09h40.01.248126 +0200,
10,-0.4,0.05,,,,,,,,,,,,,,,,,,,,,,,,,,,,,,,,,,,,,,,,,,,,,,,,,,,,,0,5,5,5,,,,,,,,,383.18271189997904,,,,,,,,,,,,,,,,,,,,,,,,,,,,,,,,,,,,,,,,,,,,,,,,,,,,,,,,,,,,,,,,,,,,,,,,,,,,,,,,,,,,382.89245930011384,382.89790949993767,None,,,,,,,,,,davidb,264706,Hombre,2025-05-06_09h39.12.361,tarea_iceberg,2023.2.3,60.155550215669095,2025-05-06 09h40.01.248126 +0200,
12,0,0.05,,,,,,,,,,,,,,,,,,,,,,,,,,,,,,,,,,,,,,,,,,,,,,,,,,,,,0,6,6,6,,,,,,,,,383.18271189997904,,,,,,,,,,,,,,,,,,,,,,,,,,,,,,,,,,,,,,,,,,,,,,,,,,,,,,,,,,,,,,,,,,,,,,,,,,,,,,,,,,,,382.89815789996646,382.9037216999568,None,,,,,,,,,,davidb,264706,Hombre,2025-05-06_09h39.12.361,tarea_iceberg,2023.2.3,60.155550215669095,2025-05-06 09h40.01.248126 +0200,
9,0.4,0.05,,,,,,,,,,,,,,,,,,,,,,,,,,,,,,,,,,,,,,,,,,,,,,,,,,,,,0,7,7,7,,,,,,,,,383.18271189997904,,,,,,,,,,,,,,,,,,,,,,,,,,,,,,,,,,,,,,,,,,,,,,,,,,,,,,,,,,,,,,,,,,,,,,,,,,,,,,,,,,,,382.90397799992934,382.9095143999439,None,,,,,,,,,,davidb,264706,Hombre,2025-05-06_09h39.12.361,tarea_iceberg,2023.2.3,60.155550215669095,2025-05-06 09h40.01.248126 +0200,
4,-0.3,0.05,,,,,,,,,,,,,,,,,,,,,,,,,,,,,,,,,,,,,,,,,,,,,,,,,,,,,0,8,8,8,,,,,,,,,383.18271189997904,,,,,,,,,,,,,,,,,,,,,,,,,,,,,,,,,,,,,,,,,,,,,,,,,,,,,,,,,,,,,,,,,,,,,,,,,,,,,,,,,,,,382.90977300005034,382.91524580004625,None,,,,,,,,,,davidb,264706,Hombre,2025-05-06_09h39.12.361,tarea_iceberg,2023.2.3,60.155550215669095,2025-05-06 09h40.01.248126 +0200,
9,0.3,0.05,,,,,,,,,,,,,,,,,,,,,,,,,,,,,,,,,,,,,,,,,,,,,,,,,,,,,0,9,9,9,,,,,,,,,383.18271189997904,,,,,,,,,,,,,,,,,,,,,,,,,,,,,,,,,,,,,,,,,,,,,,,,,,,,,,,,,,,,,,,,,,,,,,,,,,,,,,,,,,,,382.9155005000066,382.9212082999293,None,,,,,,,,,,davidb,264706,Hombre,2025-05-06_09h39.12.361,tarea_iceberg,2023.2.3,60.155550215669095,2025-05-06 09h40.01.248126 +0200,
9,-0.4,0.05,,,,,,,,,,,,,,,,,,,,,,,,,,,,,,,,,,,,,,,,,,,,,,,,,,,,,,,,,0,0,0,0,,,,,383.18271189997904,,,,,,,,,,,,,,,,,,,,,,,,,,,,,,,,,,,,,,,,,,,,,,,,,,,,,,,,,,,,,,,,,,,,,,,,,,,,,,,,,,,,,,,382.96809970005415,382.9754357000347,None,,,,,,,davidb,264706,Hombre,2025-05-06_09h39.12.361,tarea_iceberg,2023.2.3,60.155550215669095,2025-05-06 09h40.01.248126 +0200,
10,0.2,0.05,,,,,,,,,,,,,,,,,,,,,,,,,,,,,,,,,,,,,,,,,,,,,,,,,,,,,,,,,0,1,1,1,,,,,383.18271189997904,,,,,,,,,,,,,,,,,,,,,,,,,,,,,,,,,,,,,,,,,,,,,,,,,,,,,,,,,,,,,,,,,,,,,,,,,,,,,,,,,,,,,,,382.97575780004263,382.9816046000924,None,,,,,,,davidb,264706,Hombre,2025-05-06_09h39.12.361,tarea_iceberg,2023.2.3,60.155550215669095,2025-05-06 09h40.01.248126 +0200,
14,-0.4,0.05,,,,,,,,,,,,,,,,,,,,,,,,,,,,,,,,,,,,,,,,,,,,,,,,,,,,,,,,,0,2,2,2,,,,,383.18271189997904,,,,,,,,,,,,,,,,,,,,,,,,,,,,,,,,,,,,,,,,,,,,,,,,,,,,,,,,,,,,,,,,,,,,,,,,,,,,,,,,,,,,,,,382.981873099925,382.9883151999675,None,,,,,,,davidb,264706,Hombre,2025-05-06_09h39.12.361,tarea_iceberg,2023.2.3,60.155550215669095,2025-05-06 09h40.01.248126 +0200,
6,-0.5,0.05,,,,,,,,,,,,,,,,,,,,,,,,,,,,,,,,,,,,,,,,,,,,,,,,,,,,,,,,,0,3,3,3,,,,,383.18271189997904,,,,,,,,,,,,,,,,,,,,,,,,,,,,,,,,,,,,,,,,,,,,,,,,,,,,,,,,,,,,,,,,,,,,,,,,,,,,,,,,,,,,,,,382.9885744000785,382.9941255999729,None,,,,,,,davidb,264706,Hombre,2025-05-06_09h39.12.361,tarea_iceberg,2023.2.3,60.155550215669095,2025-05-06 09h40.01.248126 +0200,
7,0.5,0.05,,,,,,,,,,,,,,,,,,,,,,,,,,,,,,,,,,,,,,,,,,,,,,,,,,,,,,,,,0,4,4,4,,,,,383.18271189997904,,,,,,,,,,,,,,,,,,,,,,,,,,,,,,,,,,,,,,,,,,,,,,,,,,,,,,,,,,,,,,,,,,,,,,,,,,,,,,,,,,,,,,,382.99437570013106,382.99974950007163,None,,,,,,,davidb,264706,Hombre,2025-05-06_09h39.12.361,tarea_iceberg,2023.2.3,60.155550215669095,2025-05-06 09h40.01.248126 +0200,
10,-0.4,0.05,,,,,,,,,,,,,,,,,,,,,,,,,,,,,,,,,,,,,,,,,,,,,,,,,,,,,,,,,0,5,5,5,,,,,383.18271189997904,,,,,,,,,,,,,,,,,,,,,,,,,,,,,,,,,,,,,,,,,,,,,,,,,,,,,,,,,,,,,,,,,,,,,,,,,,,,,,,,,,,,,,,382.99999779998325,383.00578010012396,None,,,,,,,davidb,264706,Hombre,2025-05-06_09h39.12.361,tarea_iceberg,2023.2.3,60.155550215669095,2025-05-06 09h40.01.248126 +0200,
12,0,0.05,,,,,,,,,,,,,,,,,,,,,,,,,,,,,,,,,,,,,,,,,,,,,,,,,,,,,,,,,0,6,6,6,,,,,383.18271189997904,,,,,,,,,,,,,,,,,,,,,,,,,,,,,,,,,,,,,,,,,,,,,,,,,,,,,,,,,,,,,,,,,,,,,,,,,,,,,,,,,,,,,,,383.0060483000707,383.0115044999402,None,,,,,,,davidb,264706,Hombre,2025-05-06_09h39.12.361,tarea_iceberg,2023.2.3,60.155550215669095,2025-05-06 09h40.01.248126 +0200,
9,0.4,0.05,,,,,,,,,,,,,,,,,,,,,,,,,,,,,,,,,,,,,,,,,,,,,,,,,,,,,,,,,0,7,7,7,,,,,383.18271189997904,,,,,,,,,,,,,,,,,,,,,,,,,,,,,,,,,,,,,,,,,,,,,,,,,,,,,,,,,,,,,,,,,,,,,,,,,,,,,,,,,,,,,,,383.01175089995377,383.01720550004393,None,,,,,,,davidb,264706,Hombre,2025-05-06_09h39.12.361,tarea_iceberg,2023.2.3,60.155550215669095,2025-05-06 09h40.01.248126 +0200,
4,-0.3,0.05,,,,,,,,,,,,,,,,,,,,,,,,,,,,,,,,,,,,,,,,,,,,,,,,,,,,,,,,,0,8,8,8,,,,,383.18271189997904,,,,,,,,,,,,,,,,,,,,,,,,,,,,,,,,,,,,,,,,,,,,,,,,,,,,,,,,,,,,,,,,,,,,,,,,,,,,,,,,,,,,,,,383.017447500024,383.0228443001397,None,,,,,,,davidb,264706,Hombre,2025-05-06_09h39.12.361,tarea_iceberg,2023.2.3,60.155550215669095,2025-05-06 09h40.01.248126 +0200,
9,0.3,0.05,,,,,,,,,,,,,,,,,,,,,,,,,,,,,,,,,,,,,,,,,,,,,,,,,,,,,,,,,0,9,9,9,,,,,383.18271189997904,,,,,,,,,,,,,,,,,,,,,,,,,,,,,,,,,,,,,,,,,,,,,,,,,,,,,,,,,,,,,,,,,,,,,,,,,,,,,,,,,,,,,,,383.0230779000558,383.0281855999492,None,,,,,,,davidb,264706,Hombre,2025-05-06_09h39.12.361,tarea_iceberg,2023.2.3,60.155550215669095,2025-05-06 09h40.01.248126 +0200,
9,-0.4,0.05,,,,,,,,,,,,,,,,,,,,,,,,,,,,,,,,,,,,,,,,,,,,,,,,,,,,,,,,,,,,,0,0,0,0,383.18271189997904,,,,,,,,,,,,,,,,,,,,,,,,,,,,,,,,,,,,,,,,,,,,,,,,,,,,,,,,,,,,,,,,,,,,,,,,,,,,,,,,,,,,,,,,,,383.0668556999881,383.0744183000643,None,,,,davidb,264706,Hombre,2025-05-06_09h39.12.361,tarea_iceberg,2023.2.3,60.155550215669095,2025-05-06 09h40.01.248126 +0200,
10,0.2,0.05,,,,,,,,,,,,,,,,,,,,,,,,,,,,,,,,,,,,,,,,,,,,,,,,,,,,,,,,,,,,,0,1,1,1,383.18271189997904,,,,,,,,,,,,,,,,,,,,,,,,,,,,,,,,,,,,,,,,,,,,,,,,,,,,,,,,,,,,,,,,,,,,,,,,,,,,,,,,,,,,,,,,,,383.074754799949,383.0802418999374,None,,,,davidb,264706,Hombre,2025-05-06_09h39.12.361,tarea_iceberg,2023.2.3,60.155550215669095,2025-05-06 09h40.01.248126 +0200,
14,-0.4,0.05,,,,,,,,,,,,,,,,,,,,,,,,,,,,,,,,,,,,,,,,,,,,,,,,,,,,,,,,,,,,,0,2,2,2,383.18271189997904,,,,,,,,,,,,,,,,,,,,,,,,,,,,,,,,,,,,,,,,,,,,,,,,,,,,,,,,,,,,,,,,,,,,,,,,,,,,,,,,,,,,,,,,,,383.08048140001483,383.08623110014014,None,,,,davidb,264706,Hombre,2025-05-06_09h39.12.361,tarea_iceberg,2023.2.3,60.155550215669095,2025-05-06 09h40.01.248126 +0200,
6,-0.5,0.05,,,,,,,,,,,,,,,,,,,,,,,,,,,,,,,,,,,,,,,,,,,,,,,,,,,,,,,,,,,,,0,3,3,3,383.18271189997904,,,,,,,,,,,,,,,,,,,,,,,,,,,,,,,,,,,,,,,,,,,,,,,,,,,,,,,,,,,,,,,,,,,,,,,,,,,,,,,,,,,,,,,,,,383.0864836999681,383.09205680014566,None,,,,davidb,264706,Hombre,2025-05-06_09h39.12.361,tarea_iceberg,2023.2.3,60.155550215669095,2025-05-06 09h40.01.248126 +0200,
7,0.5,0.05,,,,,,,,,,,,,,,,,,,,,,,,,,,,,,,,,,,,,,,,,,,,,,,,,,,,,,,,,,,,,0,4,4,4,383.18271189997904,,,,,,,,,,,,,,,,,,,,,,,,,,,,,,,,,,,,,,,,,,,,,,,,,,,,,,,,,,,,,,,,,,,,,,,,,,,,,,,,,,,,,,,,,,383.0923097000923,383.0975687999744,None,,,,davidb,264706,Hombre,2025-05-06_09h39.12.361,tarea_iceberg,2023.2.3,60.155550215669095,2025-05-06 09h40.01.248126 +0200,
10,-0.4,0.05,,,,,,,,,,,,,,,,,,,,,,,,,,,,,,,,,,,,,,,,,,,,,,,,,,,,,,,,,,,,,0,5,5,5,383.18271189997904,,,,,,,,,,,,,,,,,,,,,,,,,,,,,,,,,,,,,,,,,,,,,,,,,,,,,,,,,,,,,,,,,,,,,,,,,,,,,,,,,,,,,,,,,,383.0978306999896,383.1035134999547,None,,,,davidb,264706,Hombre,2025-05-06_09h39.12.361,tarea_iceberg,2023.2.3,60.155550215669095,2025-05-06 09h40.01.248126 +0200,
12,0,0.05,,,,,,,,,,,,,,,,,,,,,,,,,,,,,,,,,,,,,,,,,,,,,,,,,,,,,,,,,,,,,0,6,6,6,383.18271189997904,,,,,,,,,,,,,,,,,,,,,,,,,,,,,,,,,,,,,,,,,,,,,,,,,,,,,,,,,,,,,,,,,,,,,,,,,,,,,,,,,,,,,,,,,,383.103760200087,383.10918339993805,None,,,,davidb,264706,Hombre,2025-05-06_09h39.12.361,tarea_iceberg,2023.2.3,60.155550215669095,2025-05-06 09h40.01.248126 +0200,
9,0.4,0.05,,,,,,,,,,,,,,,,,,,,,,,,,,,,,,,,,,,,,,,,,,,,,,,,,,,,,,,,,,,,,0,7,7,7,383.18271189997904,,,,,,,,,,,,,,,,,,,,,,,,,,,,,,,,,,,,,,,,,,,,,,,,,,,,,,,,,,,,,,,,,,,,,,,,,,,,,,,,,,,,,,,,,,383.1094213000033,383.1147716001142,None,,,,davidb,264706,Hombre,2025-05-06_09h39.12.361,tarea_iceberg,2023.2.3,60.155550215669095,2025-05-06 09h40.01.248126 +0200,
4,-0.3,0.05,,,,,,,,,,,,,,,,,,,,,,,,,,,,,,,,,,,,,,,,,,,,,,,,,,,,,,,,,,,,,0,8,8,8,383.18271189997904,,,,,,,,,,,,,,,,,,,,,,,,,,,,,,,,,,,,,,,,,,,,,,,,,,,,,,,,,,,,,,,,,,,,,,,,,,,,,,,,,,,,,,,,,,383.1150452999864,383.1205579000525,None,,,,davidb,264706,Hombre,2025-05-06_09h39.12.361,tarea_iceberg,2023.2.3,60.155550215669095,2025-05-06 09h40.01.248126 +0200,
9,0.3,0.05,,,,,,,,,,,,,,,,,,,,,,,,,,,,,,,,,,,,,,,,,,,,,,,,,,,,,,,,,,,,,0,9,9,9,383.18271189997904,,,,,,,,,,,,,,,,,,,,,,,,,,,,,,,,,,,,,,,,,,,,,,,,,,,,,,,,,,,,,,,,,,,,,,,,,,,,,,,,,,,,,,,,,,383.12079380010255,383.1260371999815,None,,,,davidb,264706,Hombre,2025-05-06_09h39.12.361,tarea_iceberg,2023.2.3,60.155550215669095,2025-05-06 09h40.01.248126 +0200,
,,,,,,,,,,,,,,,,,,,,,,,,,,,,,,,,,,,,,,,,,,,,,,,,,,,,,,,,,,,,,,,,,,,,,,,,,,,,,,,,,,,,,,,,,,,,,,,,,,,,,,,,,,,,,,,,,,,,,,,,,,,,,,,,,,,,,,,,,,,,,,,,,,,,,,,,,,,,,,,,383.1710205001291,383.18271189997904,385.1712980000302,,,,,,,,,
