instructions.started,instructions.stopped,participant,age,date,expName,psychopyVersion,OS,frameRate,reset_balloon.started,reset_balloon.stopped,trial.started,trial.stopped,nPumps,size,earnings,popped,pump.thisRepN,pump.thisTrialN,pump.thisN,pump.thisIndex,pump.ran,feedback.started,feedback.stopped,trials.thisRepN,trials.thisTrialN,trials.thisN,trials.thisIndex,trials.ran,maxPumps,finalScore.started
0.0002,4.2228,david,25,2024-02-04_13h03.00.924,bart,2023.2.3,Win32,60.24096386,,,,,,,,,,,,,,,,,,,,,,
,,david,25,2024-02-04_13h03.00.924,bart,2023.2.3,Win32,60.24096386,4.2367,4.2369,6.2599,7.1084,6,0.205,0,TRUE,6,0,6,0,1,,,,,,,,,
,,david,25,2024-02-04_13h03.00.924,bart,2023.2.3,Win32,60.24096386,,,,,,,,,,,,,,7.1087,8.5575,0,0,0,5,1,7,
,,david,25,2024-02-04_13h03.00.924,bart,2023.2.3,Win32,60.24096386,8.5577,8.5577,9.1764,9.8422,2,0.145,0.1,FALSE,2,0,2,0,1,,,,,,,,,
,,david,25,2024-02-04_13h03.00.924,bart,2023.2.3,Win32,60.24096386,,,,,,,,,,,,,,9.8424,11.3348,0,1,1,9,1,11,
,,david,25,2024-02-04_13h03.00.924,bart,2023.2.3,Win32,60.24096386,11.3351,11.3351,11.7861,12.5158,1,0.13,0.05,FALSE,1,0,1,0,1,,,,,,,,,
,,david,25,2024-02-04_13h03.00.924,bart,2023.2.3,Win32,60.24096386,,,,,,,,,,,,,,12.5158,13.9967,0,2,2,2,1,4,
,,david,25,2024-02-04_13h03.00.924,bart,2023.2.3,Win32,60.24096386,13.997,13.997,14.5989,14.7429,1,0.13,0,TRUE,,,,,,14.743,16.189,0,3,3,0,1,2,
,,david,25,2024-02-04_13h03.00.924,bart,2023.2.3,Win32,60.24096386,16.1891,16.1891,17.4786,18.3917,4,0.175,0.2,FALSE,4,0,4,0,1,,,,,,,,,
,,david,25,2024-02-04_13h03.00.924,bart,2023.2.3,Win32,60.24096386,,,,,,,,,,,,,,18.3918,19.9193,0,4,4,15,1,17,
,,david,25,2024-02-04_13h03.00.924,bart,2023.2.3,Win32,60.24096386,19.9194,19.9195,22.0813,22.8241,6,0.205,0.3,FALSE,6,0,6,0,1,,,,,,,,,
,,david,25,2024-02-04_13h03.00.924,bart,2023.2.3,Win32,60.24096386,,,,,,,,,,,,,,22.8242,24.3161,0,5,5,10,1,12,
,,david,25,2024-02-04_13h03.00.924,bart,2023.2.3,Win32,60.24096386,24.3163,24.3163,27.1005,28.1337,8,0.235,0,TRUE,,,,,,28.1337,29.6178,0,6,6,7,1,9,
,,david,25,2024-02-04_13h03.00.924,bart,2023.2.3,Win32,60.24096386,29.618,29.618,32.682,33.3822,6,0.205,0.3,FALSE,6,0,6,0,1,,,,,,,,,
,,david,25,2024-02-04_13h03.00.924,bart,2023.2.3,Win32,60.24096386,,,,,,,,,,,,,,33.3822,34.842,0,7,7,13,1,15,
,,david,25,2024-02-04_13h03.00.924,bart,2023.2.3,Win32,60.24096386,34.8421,34.8422,36.2508,37.8703,5,0.19,0.25,FALSE,5,0,5,0,1,,,,,,,,,
,,david,25,2024-02-04_13h03.00.924,bart,2023.2.3,Win32,60.24096386,,,,,,,,,,,,,,37.8703,39.3677,0,8,8,11,1,13,
,,david,25,2024-02-04_13h03.00.924,bart,2023.2.3,Win32,60.24096386,39.3679,39.3679,40.8006,41.6837,5,0.19,0.25,FALSE,5,0,5,0,1,,,,,,,,,
,,david,25,2024-02-04_13h03.00.924,bart,2023.2.3,Win32,60.24096386,,,,,,,,,,,,,,41.6837,43.1615,0,9,9,17,1,19,
,,david,25,2024-02-04_13h03.00.924,bart,2023.2.3,Win32,60.24096386,43.1617,43.1618,43.9833,44.2203,2,0.145,0,TRUE,,,,,,44.2203,45.6847,0,10,10,1,1,3,
,,david,25,2024-02-04_13h03.00.924,bart,2023.2.3,Win32,60.24096386,45.6849,45.6849,46.7426,47.5702,4,0.175,0.2,FALSE,4,0,4,0,1,,,,,,,,,
,,david,25,2024-02-04_13h03.00.924,bart,2023.2.3,Win32,60.24096386,,,,,,,,,,,,,,47.5702,49.0833,0,11,11,6,1,8,
,,david,25,2024-02-04_13h03.00.924,bart,2023.2.3,Win32,60.24096386,49.0834,49.0834,50.2996,50.4406,5,0.19,0,TRUE,,,,,,50.4406,51.9371,0,12,12,4,1,6,
,,david,25,2024-02-04_13h03.00.924,bart,2023.2.3,Win32,60.24096386,51.9373,51.9373,52.9146,53.439,4,0.175,0.2,FALSE,4,0,4,0,1,,,,,,,,,
,,david,25,2024-02-04_13h03.00.924,bart,2023.2.3,Win32,60.24096386,,,,,,,,,,,,,,53.4391,54.9275,0,13,13,19,1,21,
,,david,25,2024-02-04_13h03.00.924,bart,2023.2.3,Win32,60.24096386,54.9281,54.9282,55.5994,56.288,1,0.13,0.05,FALSE,1,0,1,0,1,,,,,,,,,
,,david,25,2024-02-04_13h03.00.924,bart,2023.2.3,Win32,60.24096386,,,,,,,,,,,,,,56.2881,57.7585,0,14,14,18,1,20,
,,david,25,2024-02-04_13h03.00.924,bart,2023.2.3,Win32,60.24096386,57.7588,57.7588,58.2168,59.1783,1,0.13,0.05,FALSE,1,0,1,0,1,,,,,,,,,
,,david,25,2024-02-04_13h03.00.924,bart,2023.2.3,Win32,60.24096386,,,,,,,,,,,,,,59.1785,60.6685,0,15,15,16,1,18,
,,david,25,2024-02-04_13h03.00.924,bart,2023.2.3,Win32,60.24096386,60.6688,60.6688,61.2082,62.0226,1,0.13,0.05,FALSE,1,0,1,0,1,,,,,,,,,
,,david,25,2024-02-04_13h03.00.924,bart,2023.2.3,Win32,60.24096386,,,,,,,,,,,,,,62.0226,63.4949,0,16,16,8,1,10,
,,david,25,2024-02-04_13h03.00.924,bart,2023.2.3,Win32,60.24096386,63.4952,63.4952,64.0332,65.0013,1,0.13,0.05,FALSE,1,0,1,0,1,,,,,,,,,
,,david,25,2024-02-04_13h03.00.924,bart,2023.2.3,Win32,60.24096386,,,,,,,,,,,,,,65.0014,66.5072,0,17,17,12,1,14,
,,david,25,2024-02-04_13h03.00.924,bart,2023.2.3,Win32,60.24096386,66.5074,66.5074,67.1183,68.7329,1,0.13,0.05,FALSE,1,0,1,0,1,,,,,,,,,
,,david,25,2024-02-04_13h03.00.924,bart,2023.2.3,Win32,60.24096386,,,,,,,,,,,,,,68.733,70.2218,0,18,18,3,1,5,
,,david,25,2024-02-04_13h03.00.924,bart,2023.2.3,Win32,60.24096386,70.222,70.222,71.1225,71.8508,1,0.13,0.05,FALSE,1,0,1,0,1,,,,,,,,,
,,david,25,2024-02-04_13h03.00.924,bart,2023.2.3,Win32,60.24096386,,,,,,,,,,,,,,71.851,73.3461,0,19,19,14,1,16,
,,david,25,2024-02-04_13h03.00.924,bart,2023.2.3,Win32,60.24096386,,,,,,,,,,,,,,,,,,,,,,73.3465